sweeps.thisRepN,sweeps.thisTrialN,sweeps.thisN,sweeps.thisIndex,trials.thisRepN,trials.thisTrialN,trials.thisN,trials.thisIndex,instructions.started,instructions.stopped,blank_text.started,blank_text.stopped,Intervals,text.started,text.stopped,Delay,Prediction,Frequency,Volume,Psychopy_level,isCatchTrial,len(y),finished_audiograms,probe.started,probe.stopped,feedback.keys,feedback.started,feedback.stopped,ISI.started,ISI.stopped,text_2.started,text_2.stopped,feedback.rt,break_txt.started,break_txt.stopped,,Audiogram_frequency,Audiogram_none,Audiogram_time,Audiogram_both,participant,session,language (english or french),Resume previous experiment,date,expName,psychopyVersion,frameRate,
0,0,0,0,0,0,0,0,21.601751500042155,None,42.58215490006842,None,"[0.5833333333333334, 0.5833333333333334, 0.3333333333333333, 0.5833333333333334, 0.3333333333333333, 0.16666666666666666, 0.3333333333333333, 0.5833333333333334, 0.16666666666666666, 0.3333333333333333, 0.5833333333333334, 0.5833333333333334, 0.3333333333333333, 0.5833333333333334, 0.3333333333333333]",44.5761490999721,None,2.244465051821048,none,1261.0,-0.8312455076383,4.928632346964187e-05,0,27,[],0.004576766397804022,0.19872126635164022,None,45.60208089998923,None,0.19872126635164022,2.443186318172688,45.81604059995152,None,,,,,,,,,quvsxs,001,fr,0,2022-05-17_13h07.04.793,Continuous,2022.1.1,None,
0,0,0,0,1,0,1,0,,,,,,,,2.158228274433177,none,446.0,3.7790383997584014,0.00011465124714207014,0,28,[],0.011936166556552052,0.2078603666741401,['space'],48.0829143000301,48.0829143000301,0.2078603666741401,2.366088641107317,48.28899669996463,48.0829143000301,[-1.7781082999426872],,,,,,,,quvsxs,001,fr,0,2022-05-17_13h07.04.793,Continuous,2022.1.1,None,
0,0,0,0,2,0,2,0,,,,,,,,1.8176230765323844,none,,,,1,28,[],0.011944366618990898,None,['space'],50.47389500006102,50.47389500006102,0.2106040664948523,2.0282271430272365,50.68697779998183,50.47389500006102,[-1.769374999916181],,,,,,,,quvsxs,001,fr,0,2022-05-17_13h07.04.793,Continuous,2022.1.1,None,
0,0,0,0,3,0,3,0,,,,,,,,2.2563517706346525,none,1001.0,-0.41677057222095504,4.2028475399528715e-05,0,29,[],0.01288936659693718,0.2101472665090114,None,52.53248850000091,52.53248850000091,0.2101472665090114,2.466499037143664,52.746048599947244,52.53248850000091,,,,,,,,,quvsxs,001,fr,0,2022-05-17_13h07.04.793,Continuous,2022.1.1,None,
0,0,0,0,4,0,4,0,,,,,,,,2.445640990018682,none,668.0,-0.8976583880894391,4.313587288361613e-05,0,30,[],0.011791966622695327,None,['space'],55.01949999993667,55.01949999993667,0.21228186669759452,2.6579228567162767,55.226921499939635,55.01949999993667,[-1.842931899940595],,,,,,,,quvsxs,001,fr,0,2022-05-17_13h07.04.793,Continuous,2022.1.1,None,
0,0,0,0,5,0,5,0,,,,,,,,1.6279014716650233,none,315.0,1.235696303661037,0.00011369852208229137,0,31,[],0.011497766710817814,0.20849976665340364,None,57.700940599897876,57.700940599897876,0.20849976665340364,1.836401238318427,57.914382099872455,57.700940599897876,,,,,,,,,quvsxs,001,fr,0,2022-05-17_13h07.04.793,Continuous,2022.1.1,None,
0,0,0,0,6,0,6,0,,,,,,,,2.130360846247723,none,149.0,2.5711259013873775,0.0006844137090399001,0,32,[],0.004646366694942117,0.19378386670723557,None,59.567742000101134,59.567742000101134,0.19378386670723557,2.3241447129549586,59.77846629987471,59.567742000101134,,,,,,,,,quvsxs,001,fr,0,2022-05-17_13h07.04.793,Continuous,2022.1.1,None,
0,0,0,0,7,0,7,0,,,,,,,,2.7401474876414857,none,2380.0,-0.7592946660819226,7.626812311224839e-05,0,33,[],0.004690366331487894,0.1938494665082544,['space'],61.93670369987376,61.93670369987376,0.1938494665082544,2.93399695414974,62.148200100054964,61.93670369987376,[-1.768683600006625],,,,,,,,quvsxs,001,fr,0,2022-05-17_13h07.04.793,Continuous,2022.1.1,None,
0,0,0,0,8,0,8,0,,,,,,,,1.3628388453397549,none,354.0,-1.0,7.887248739356936e-05,0,34,[],0.01160606648772955,None,['space'],64.91601680009626,64.91601680009626,0.2141410664189607,1.5769799117587155,65.13571659987792,64.91601680009626,[-2.4919477999210358],,,,,,,,quvsxs,001,fr,0,2022-05-17_13h07.04.793,Continuous,2022.1.1,None,
0,0,0,0,9,0,9,0,,,,,,,,1.4068819807496737,none,167.0,1.2730505994755081,0.00044649901645401875,0,35,[],0.010894866427406669,0.20671356655657291,None,66.5199835000094,66.5199835000094,0.20671356655657291,1.6135955473062467,66.73239780007862,66.5199835000094,,,,,,,,,quvsxs,001,fr,0,2022-05-17_13h07.04.793,Continuous,2022.1.1,None,
0,0,0,0,10,0,10,0,,,,,,,,2.696662802204065,none,1889.0,-0.5479679299365919,6.553234484811474e-05,0,36,[],0.011484366608783603,None,None,68.16458319989033,68.16458319989033,0.20787866669707,2.904541468901135,68.37722039991058,68.16458319989033,,,,,,,,,quvsxs,001,fr,0,2022-05-17_13h07.04.793,Continuous,2022.1.1,None,
1,0,1,0,0,0,0,0,,,,,,73.93049969989806,None,2.6706758983953893,frequency,140.0,0.6106722660570112,0.0006320913885071404,0,27,[],0.0075968666933476925,0.20368596678599715,None,74.95916739990935,None,0.20368596678599715,2.8743618651813865,75.17001680005342,None,,71.10231569991447,None,0.3333333333333333,,,,,quvsxs,001,fr,0,2022-05-17_13h07.04.793,Continuous,2022.1.1,None,
1,0,1,0,1,0,1,0,,,,,,,,1.803996968121756,frequency,177.0,1.60581363555525,0.00042012110670657535,0,28,[],0.010897566564381123,None,None,77.86563350004144,77.86563350004144,0.21386966668069363,2.0178666348024494,78.08137389994226,77.86563350004144,,,,,,,,,quvsxs,001,fr,0,2022-05-17_13h07.04.793,Continuous,2022.1.1,None,
1,0,1,0,2,0,2,0,,,,,,,,1.8248319462097018,frequency,223.0,0.6151408999149388,0.0002365543292750011,0,29,[],0.0111156664788723,None,None,79.90884849987924,79.90884849987924,0.21324326656758785,2.0380752127772896,80.12431239988655,79.90884849987924,,,,,,,,,quvsxs,001,fr,0,2022-05-17_13h07.04.793,Continuous,2022.1.1,None,
1,0,1,0,3,0,3,0,,,,,,,,2.1285606381221527,frequency,,,,1,29,[],0.011758866487070918,None,['space'],81.97711330000311,81.97711330000311,0.2103759665042162,2.338936604626369,82.18739810003899,81.97711330000311,[-1.4796631000936031],,,,,,,,quvsxs,001,fr,0,2022-05-17_13h07.04.793,Continuous,2022.1.1,None,
1,0,1,0,4,0,4,0,,,,,,,,1.6939248294904186,frequency,354.0,-1.0,7.887248739356936e-05,0,30,[],0.009164966410025954,None,None,84.3393963999115,84.3393963999115,0.2290086664725095,1.922933495962928,84.55859069991857,84.3393963999115,,,,,,,,,quvsxs,001,fr,0,2022-05-17_13h07.04.793,Continuous,2022.1.1,None,
1,0,1,0,5,0,5,0,,,,,,,,2.0257725523639336,frequency,446.0,0.16920112585844294,7.566358584760716e-05,0,31,[],0.010951266624033451,0.20800446649082005,None,86.28224690002389,86.28224690002389,0.20800446649082005,2.2337770188547537,86.49504479998723,86.28224690002389,,,,,,,,,quvsxs,001,fr,0,2022-05-17_13h07.04.793,Continuous,2022.1.1,None,
1,0,1,0,6,0,6,0,,,,,,,,2.118305884625597,frequency,562.0,2.8930883994949363,8.618879870295842e-05,0,32,[],0.010838166577741504,None,None,88.53804420004599,88.53804420004599,0.20740706659853458,2.3257129512241317,88.75481799989939,88.53804420004599,,,,,,,,,quvsxs,001,fr,0,2022-05-17_13h07.04.793,Continuous,2022.1.1,None,
1,0,1,0,7,0,7,0,,,,,,,,1.953815630347469,frequency,708.0,0.5639831255039951,4.729815159294312e-05,0,33,[],0.011023766594007611,None,['space'],90.89301500003785,90.89301500003785,0.21114046638831496,2.164956096735784,91.10390069987625,90.89301500003785,[-1.8293395000509918],,,,,,,,quvsxs,001,fr,0,2022-05-17_13h07.04.793,Continuous,2022.1.1,None,
1,0,1,0,8,0,8,0,,,,,,,,2.4565348333479156,frequency,892.0,-0.04990534170338978,4.074808963470412e-05,0,34,[],0.011122866533696651,None,None,93.08602269995026,93.08602269995026,0.21310156653635204,2.6696363998842676,93.30293280002661,93.08602269995026,,,,,,,,,quvsxs,001,fr,0,2022-05-17_13h07.04.793,Continuous,2022.1.1,None,
1,0,1,0,9,0,9,0,,,,,,,,1.7102467512317607,frequency,1124.0,-0.16890986146420917,4.82907324907432e-05,0,35,[],0.011214366648346186,0.20627676649019122,None,95.78379129990935,95.78379129990935,0.20627676649019122,1.916523517721952,95.99618589994498,95.78379129990935,,,,,,,,,quvsxs,001,fr,0,2022-05-17_13h07.04.793,Continuous,2022.1.1,None,
1,0,1,0,10,0,10,0,,,,,,,,2.0904956864279574,frequency,1416.0,-0.42155500589130535,4.800088809451582e-05,0,36,[],0.00476276664994657,0.19468736671842635,None,97.72236169991083,97.72236169991083,0.19468736671842635,2.2851830531463837,97.93090929999016,97.72236169991083,,,,,,,,,quvsxs,001,fr,0,2022-05-17_13h07.04.793,Continuous,2022.1.1,None,
2,0,2,0,0,0,0,0,,,,,"[0.16666666666666666, 0.3333333333333333, 0.16666666666666666, 0.5833333333333334, 0.5833333333333334, 0.5833333333333334, 0.3333333333333333, 0.3333333333333333, 0.3333333333333333, 0.5833333333333334, 0.3333333333333333, 0.3333333333333333, 0.16666666666666666, 0.3333333333333333, 0.3333333333333333]",103.64644460007548,None,1.88442517897314,none,4595.0,-1.0,0.00011129913595123019,0,37,[],0.012735866475850344,None,None,104.68408240005374,None,0.2132498666178435,2.0976750455909836,104.89257030002773,None,,100.05235549993813,None,,,,,,quvsxs,001,fr,0,2022-05-17_13h07.04.793,Continuous,2022.1.1,None,
2,0,2,0,1,0,1,0,,,,,,,,1.4702455219433355,none,2895.0,-0.7276491936625182,5.6418886463752495e-05,0,38,[],0.010576866567134857,None,['space'],106.80435079988092,106.80435079988092,0.212461166549474,1.6827066884928095,107.01245280005969,106.80435079988092,[-1.5960808999370784],,,,,,,,quvsxs,001,fr,0,2022-05-17_13h07.04.793,Continuous,2022.1.1,None,
2,0,2,0,2,0,2,0,,,,,,,,2.495342837803057,none,2298.0,-0.9155018407532939,7.327289744135831e-05,0,39,[],0.011027066735550761,0.2068305667489767,"['space', 'space']",108.51357370009646,108.51357370009646,0.2068305667489767,2.702173404552034,108.71844649990089,108.51357370009646,"[-1.2896710999775678, -0.42596339993178844]",,,,,,,,quvsxs,001,fr,0,2022-05-17_13h07.04.793,Continuous,2022.1.1,None,
2,0,2,0,3,0,3,0,,,,,,,,2.170822761366491,none,608.0,1.3304926895786684,6.363421516008104e-05,0,40,[],0.0038276666309684515,0.19393446645699441,['space'],111.23818270000629,111.23818270000629,0.19393446645699441,2.3647572278234854,111.44959510001354,111.23818270000629,[-2.2928336998447776],,,,,,,,quvsxs,001,fr,0,2022-05-17_13h07.04.793,Continuous,2022.1.1,None,
2,0,2,0,4,0,4,0,,,,,,,,1.3590842232457845,none,6885.0,-1.1551279585640906,0.00012934326448187027,0,41,[],0.010827766498550773,None,None,113.64257739996538,113.64257739996538,0.21031166659668088,1.5693958898424654,113.85310239996761,113.64257739996538,,,,,,,,,quvsxs,001,fr,0,2022-05-17_13h07.04.793,Continuous,2022.1.1,None,
2,0,2,0,5,0,5,0,,,,,,,,1.719294656176903,none,1534.0,-0.5244507044871767,4.8176378738460876e-05,0,42,[],0.004081666469573975,None,['space'],115.24223860003985,115.24223860003985,0.19679236644878983,1.9160870226256927,115.45429380005226,115.24223860003985,[-1.082407800015062],,,,,,,,quvsxs,001,fr,0,2022-05-17_13h07.04.793,Continuous,2022.1.1,None,
2,0,2,0,6,0,6,0,,,,,,,,1.2438027299164773,none,3647.0,-0.6605036541708396,7.20509113521859e-05,0,43,[],0.010447666747495532,None,None,117.2030915999785,117.2030915999785,0.20695586665533483,1.4507585965718122,117.4216666999273,117.2030915999785,,,,,,,,,quvsxs,001,fr,0,2022-05-17_13h07.04.793,Continuous,2022.1.1,None,
2,0,2,0,7,0,7,0,,,,,,,,2.6522998992865663,none,,,,1,43,[],0.010609866818413138,None,['space'],118.6865061998833,118.6865061998833,0.20928736682981253,2.861587266116379,118.89572590007447,118.6865061998833,[-0.8784346000757068],,,,,,,,quvsxs,001,fr,0,2022-05-17_13h07.04.793,Continuous,2022.1.1,None,
2,0,2,0,8,0,8,0,,,,,,,,1.41899067628629,none,683.0,1.7801188149600402,5.709749393161587e-05,0,44,[],0.011821966618299484,None,None,121.57604649988934,121.57604649988934,0.21165026654489338,1.6306409428311834,121.78720879997127,121.57604649988934,,,,,,,,,quvsxs,001,fr,0,2022-05-17_13h07.04.793,Continuous,2022.1.1,None,
2,0,2,0,9,0,9,0,,,,,,,,1.0050041263984983,none,483.0,0.33841645553730615,7.518639468118672e-05,0,45,[],0.0036418666131794453,0.19339616666547954,None,123.23456629994325,123.23456629994325,0.19339616666547954,1.1984002930639779,123.44110499997623,123.23456629994325,,,,,,,,,quvsxs,001,fr,0,2022-05-17_13h07.04.793,Continuous,2022.1.1,None,
2,0,2,0,10,0,10,0,,,,,,,,1.3594924941983924,none,1024.0,-0.9740323686171799,4.027669762287888e-05,0,46,[],0.00999006675556302,None,None,124.47731400001794,124.47731400001794,0.2188712665811181,1.5783637607795105,124.68844749988057,124.47731400001794,,,,,,,,,quvsxs,001,fr,0,2022-05-17_13h07.04.793,Continuous,2022.1.1,None,
3,0,3,0,0,0,0,0,,,,,"[0.16666666666666666, 0.16666666666666666, 0.3333333333333333, 0.3333333333333333, 0.5833333333333334, 0.5833333333333334, 0.5833333333333334, 0.5833333333333334, 0.5833333333333334, 0.3333333333333333, 0.16666666666666666, 0.16666666666666666, 0.3333333333333333, 0.16666666666666666, 0.5833333333333334]",131.52489009988494,None,1.432839581542293,none,491.0,5.198299460097933,0.00013081919084688556,0,47,[],0.012713066767901182,None,None,132.5614656000398,None,0.21670706663280725,1.6495466481751002,132.77271679998375,None,,126.0679691999685,None,,,,,,quvsxs,001,fr,0,2022-05-17_13h07.04.793,Continuous,2022.1.1,None,
3,0,3,0,1,0,1,0,,,,,,,,1.3469880881432639,none,,,,1,47,[],0.010536366607993841,None,None,134.23639649990946,134.23639649990946,0.21036106650717556,1.5573491546504394,134.44138940004632,134.23639649990946,,,,,,,,,quvsxs,001,fr,0,2022-05-17_13h07.04.793,Continuous,2022.1.1,None,
3,0,3,0,2,0,2,0,,,,,,,,2.172368060465449,none,437.0,5.104950868592459,0.00013438710358988398,0,48,[],0.011236866237595677,None,None,135.81515979999676,135.81515979999676,0.21077006636187434,2.3831381268273235,136.02163329999894,135.81515979999676,,,,,,,,,quvsxs,001,fr,0,2022-05-17_13h07.04.793,Continuous,2022.1.1,None,
3,0,3,0,3,0,3,0,,,,,,,,2.57584155134819,none,736.0,4.829237122404329,7.300569901745989e-05,0,49,[],0.01036176667548716,None,['space'],138.22329979995266,138.22329979995266,0.20758486655540764,2.7834264179035975,138.4418069999665,138.22329979995266,[-1.6298960000276566],,,,,,,,quvsxs,001,fr,0,2022-05-17_13h07.04.793,Continuous,2022.1.1,None,
3,0,3,0,4,0,4,0,,,,,,,,1.3222655405189832,none,309.0,3.569537698672688,0.00015833374561011266,0,50,[],0.0031412665266543627,0.19167596637271345,['space'],141.03835600009188,141.03835600009188,0.19167596637271345,1.5139415068916966,141.24672929989174,141.03835600009188,[-2.3504940001294017],,,,,,,,quvsxs,001,fr,0,2022-05-17_13h07.04.793,Continuous,2022.1.1,None,
3,0,3,0,5,0,5,0,,,,,,,,1.6133449956737587,none,145.0,4.758455318833063,0.0009420004068985741,0,51,[],0.010235866764560342,None,None,142.5895698000677,142.5895698000677,0.2098246666137129,1.8231696622874716,142.80197779997252,142.5895698000677,,,,,,,,,quvsxs,001,fr,0,2022-05-17_13h07.04.793,Continuous,2022.1.1,None,
3,0,3,0,6,0,6,0,,,,,,,,2.2365046192610802,none,218.0,5.0,0.00040931866624671745,0,52,[],0.009775666519999504,None,['space'],144.44650739990175,144.44650739990175,0.2201459666248411,2.4566505858859213,144.66892349999398,144.44650739990175,[-0.405854000011459],,,,,,,,quvsxs,001,fr,0,2022-05-17_13h07.04.793,Continuous,2022.1.1,None,
3,0,3,0,7,0,7,0,,,,,,,,1.101075214722006,none,347.0,4.974559723389992,0.0001601331981042596,0,53,[],0.00210036663338542,0.19692806666716933,None,146.92976969992742,146.92976969992742,0.19692806666716933,1.2980032813891753,147.1403592999559,146.92976969992742,,,,,,,,,quvsxs,001,fr,0,2022-05-17_13h07.04.793,Continuous,2022.1.1,None,
4,0,4,0,0,0,0,0,,,,,"[0.3333333333333333, 0.16666666666666666, 0.3333333333333333, 0.3333333333333333, 0.5833333333333334, 0.5833333333333334, 0.3333333333333333, 0.3333333333333333, 0.5833333333333334, 0.16666666666666666, 0.16666666666666666, 0.3333333333333333, 0.16666666666666666, 0.5833333333333334, 0.16666666666666666]",151.24268990010023,None,2.6853895063458677,none,5278.0,6.0,0.0002843137818781983,0,54,[],0.01299086632207036,None,None,152.26000540005043,None,0.21099666645750403,2.8963861728033717,152.46842249995098,None,,148.2725078999065,None,,,,,,quvsxs,001,fr,0,2022-05-17_13h07.04.793,Continuous,2022.1.1,None,
4,0,4,0,1,0,1,0,,,,,,,,1.6357065988214896,none,784.0,3.2564449591103033,5.687873070076215e-05,0,55,[],0.005431566620245576,0.1948291666340083,['space'],155.18177630007267,155.18177630007267,0.1948291666340083,1.830535765455498,155.38897649990395,155.18177630007267,[-2.4377980001736432],,,,,,,,quvsxs,001,fr,0,2022-05-17_13h07.04.793,Continuous,2022.1.1,None,
4,0,4,0,2,0,2,0,,,,,,,,2.496896473819132,none,1481.0,1.440960946686115,5.757562516299713e-05,0,56,[],0.0023506665602326393,0.19187276647426188,None,157.05671250005253,157.05671250005253,0.19187276647426188,2.688769240293394,157.26523440005258,157.05671250005253,,,,,,,,,quvsxs,001,fr,0,2022-05-17_13h07.04.793,Continuous,2022.1.1,None,
4,0,4,0,3,0,3,0,,,,,,,,1.207412806695362,none,,,,1,56,[],0.007374766515567899,0.2005146665032953,['space'],159.78572560008615,159.78572560008615,0.2005146665032953,1.4079274731986573,159.9920747000724,159.78572560008615,[-1.617510500131175],,,,,,,,quvsxs,001,fr,0,2022-05-17_13h07.04.793,Continuous,2022.1.1,None,
4,0,4,0,4,0,4,0,,,,,,,,2.0088252359505416,none,3523.0,4.632532982227606,0.00012881256235092433,0,57,[],0.010803466429933906,None,None,161.225733499974,161.225733499974,0.21109636663459241,2.219921602585134,161.43863689992577,161.225733499974,,,,,,,,,quvsxs,001,fr,0,2022-05-17_13h07.04.793,Continuous,2022.1.1,None,
4,0,4,0,5,0,5,0,,,,,,,,2.0727461989110463,none,2796.0,2.4416834312309725,8.941181888895433e-05,0,58,[],0.0020922666881233454,0.19699766673147678,['space'],163.48062060005032,163.48062060005032,0.19699766673147678,2.269743865642523,163.69922189996578,163.48062060005032,[-1.6887687998823822],,,,,,,,quvsxs,001,fr,0,2022-05-17_13h07.04.793,Continuous,2022.1.1,None,
4,0,4,0,6,0,6,0,,,,,,,,2.045568051921241,none,554.0,4.976995068898131,0.00011177194892617228,0,59,[],0.009582966798916459,None,['space'],165.79062039987184,165.79062039987184,0.20631756680086255,2.2518856187221035,165.99835100001656,165.79062039987184,[-1.7985521999653429],,,,,,,,quvsxs,001,fr,0,2022-05-17_13h07.04.793,Continuous,2022.1.1,None,
4,0,4,0,7,0,7,0,,,,,,,,1.7306980534442682,none,622.0,5.805997227358166,0.00010226711420947013,0,60,[],0.008150566602125764,None,None,168.0766813000664,168.0766813000664,0.22916566650383174,1.9598637199481,168.3041626000777,168.0766813000664,,,,,,,,,quvsxs,001,fr,0,2022-05-17_13h07.04.793,Continuous,2022.1.1,None,
4,0,4,0,8,0,8,0,,,,,,,,2.355036345451732,none,6649.0,-2.984295798151861,9.97080842408581e-05,0,61,[],0.009460266446694732,None,['space'],170.05698439991102,170.05698439991102,0.20748356659896672,2.5625199120506985,170.27531689987518,170.05698439991102,[-1.367607400054112],,,,,,,,quvsxs,001,fr,0,2022-05-17_13h07.04.793,Continuous,2022.1.1,None,
4,0,4,0,9,0,9,0,,,,,,,,1.4220662625565736,none,2219.0,2.9656970976514834,0.00011208826130913282,0,62,[],0.0020724665373563766,0.19527066638693213,['space'],172.65652689989656,172.65652689989656,0.19527066638693213,1.6173369289435058,172.87651779991575,172.65652689989656,[-2.1529456998687238],,,,,,,,quvsxs,001,fr,0,2022-05-17_13h07.04.793,Continuous,2022.1.1,None,
4,0,4,0,10,0,10,0,,,,,,,,1.4277810524592907,none,5924.0,5.290921172997267,0.00021822049631350812,0,63,[],0.002216366585344076,None,None,174.32409140001982,174.32409140001982,0.19644476636312902,1.6242258188224197,174.5363417000044,174.32409140001982,,,,,,,,,quvsxs,001,fr,0,2022-05-17_13h07.04.793,Continuous,2022.1.1,None,
5,0,5,0,0,0,0,0,,,,,"[0.5833333333333334, 0.16666666666666666, 0.5833333333333334, 0.3333333333333333, 0.16666666666666666, 0.3333333333333333, 0.5833333333333334, 0.16666666666666666, 0.3333333333333333, 0.3333333333333333, 0.3333333333333333, 0.5833333333333334, 0.16666666666666666, 0.3333333333333333, 0.16666666666666666]",186.5629352000542,None,1.5913483862523212,time,945.0,-0.2931374930026763,4.107921255671368e-05,0,27,[],0.007775066653266549,0.20302776666358113,None,187.60747670009732,None,0.20302776666358113,1.7943761529159024,187.82456199987791,None,,175.99256879999302,None,,,,,,quvsxs,001,fr,0,2022-05-17_13h07.04.793,Continuous,2022.1.1,None,
5,0,5,0,1,0,1,0,,,,,,,,1.5913483862523212,time,446.0,3.636470777855575,0.00011278475542823262,0,28,[],0.002463666722178459,0.1962583668064326,None,189.4391656999942,189.4391656999942,0.1962583668064326,1.7876067530587538,189.6491103998851,189.4391656999942,,,,,,,,,quvsxs,001,fr,0,2022-05-17_13h07.04.793,Continuous,2022.1.1,None,
5,0,5,0,2,0,2,0,,,,,,,,1.5913483862523212,time,842.0,-0.7080952648779681,3.646457800814737e-05,0,29,[],0.005328066647052765,None,None,191.26924440008588,191.26924440008588,0.2216298666317016,1.8129782528840228,191.496514899889,191.26924440008588,,,,,,,,,quvsxs,001,fr,0,2022-05-17_13h07.04.793,Continuous,2022.1.1,None,
5,0,5,0,3,0,3,0,,,,,,,,1.5913483862523212,time,167.0,1.036400549802508,0.00043449822245825387,0,30,[],0.001235966570675373,0.19512146664783359,None,193.1120205000043,193.1120205000043,0.19512146664783359,1.7864698529001548,193.32710029999726,193.1120205000043,,,,,,,,,quvsxs,001,fr,0,2022-05-17_13h07.04.793,Continuous,2022.1.1,None,
5,0,5,0,4,0,4,0,,,,,,,,1.5913483862523212,time,133.0,2.256186747843755,0.0008447379313392617,0,31,[],0.009278866462409496,None,None,194.93765560002066,194.93765560002066,0.2071347665041685,1.7984831527564897,195.1478202000726,194.93765560002066,,,,,,,,,quvsxs,001,fr,0,2022-05-17_13h07.04.793,Continuous,2022.1.1,None,
5,0,5,0,5,0,5,0,,,,,,,,1.5913483862523212,time,281.0,-0.7494352615330939,0.0001235110175813001,0,32,[],0.009386166464537382,None,None,196.76853529992513,196.76853529992513,0.20671386644244194,1.7980622526947632,196.97864850005135,196.76853529992513,,,,,,,,,quvsxs,001,fr,0,2022-05-17_13h07.04.793,Continuous,2022.1.1,None,
5,0,5,0,6,0,6,0,,,,,,,,1.5913483862523212,time,1337.0,0.15760407891126804,5.330783939699789e-05,0,33,[],0.0014885666314512491,0.19065956654958427,['space'],198.6015216000378,198.6015216000378,0.19065956654958427,1.7820079528019055,198.81426470004953,198.6015216000378,[-1.2580836000852287],,,,,,,,quvsxs,001,fr,0,2022-05-17_13h07.04.793,Continuous,2022.1.1,None,
5,0,5,0,7,0,7,0,,,,,,,,1.5913483862523212,time,,,,1,33,[],0.00862986664287746,0.20472556678578258,['space'],200.42734929989092,200.42734929989092,0.20472556678578258,1.7960739530381038,200.6339773000218,200.42734929989092,[-1.3156544000376016],,,,,,,,quvsxs,001,fr,0,2022-05-17_13h07.04.793,Continuous,2022.1.1,None,
5,0,5,0,8,0,8,0,,,,,,,,1.5913483862523212,time,354.0,-1.0,7.887248739356936e-05,0,34,[],0.010374966775998473,None,None,202.25692810001783,202.25692810001783,0.20745136681944132,1.7987997530717625,202.47270200005732,202.25692810001783,,,,,,,,,quvsxs,001,fr,0,2022-05-17_13h07.04.793,Continuous,2022.1.1,None,
5,0,5,0,9,0,9,0,,,,,,,,1.5913483862523212,time,1191.0,-0.7974264686182234,4.7476407708577786e-05,0,35,[],0.003223866457119584,0.19322306662797928,None,204.08641389990225,204.08641389990225,0.19322306662797928,1.7845714528803005,204.29812499997206,204.08641389990225,,,,,,,,,quvsxs,001,fr,0,2022-05-17_13h07.04.793,Continuous,2022.1.1,None,
5,0,5,0,10,0,10,0,,,,,,,,1.5913483862523212,time,250.0,0.42091486687798974,0.0001757987358080377,0,36,[],0.006011366378515959,0.19690336636267602,['space'],205.91827989998274,205.91827989998274,0.19690336636267602,1.7882517526149972,206.1245144000277,205.91827989998274,[-0.7010188000276685],,,,,,,,quvsxs,001,fr,0,2022-05-17_13h07.04.793,Continuous,2022.1.1,None,
6,0,6,0,0,0,0,0,,,,,"[0.5833333333333334, 0.16666666666666666, 0.5833333333333334, 0.16666666666666666, 0.3333333333333333, 0.5833333333333334, 0.3333333333333333, 0.16666666666666666, 0.3333333333333333, 0.5833333333333334, 0.3333333333333333, 0.5833333333333334, 0.5833333333333334, 0.3333333333333333, 0.5833333333333334]",210.08013410004787,None,2.132161307628417,time,2462.0,0.0,8.505306297983944e-05,0,37,[],0.013051466550678015,None,None,211.10634829988703,None,0.22285816655494273,2.3550194741833597,211.32596029993147,None,,207.74547809991054,None,,,,,,quvsxs,001,fr,0,2022-05-17_13h07.04.793,Continuous,2022.1.1,None,
6,0,6,0,1,0,1,0,,,,,,,,2.132161307628417,time,922.0,-0.15069871201209745,4.1115960490440446e-05,0,38,[],0.0037504665087908506,0.19400586653500795,['space'],213.47833719989285,213.47833719989285,0.19400586653500795,2.326167174163425,213.68547639995813,213.47833719989285,[-1.9268764001317322],,,,,,,,quvsxs,001,fr,0,2022-05-17_13h07.04.793,Continuous,2022.1.1,None,
6,0,6,0,2,0,2,0,,,,,,,,2.132161307628417,time,1954.0,-0.028762072858526555,7.249428768520148e-05,0,39,[],0.0042839664965868,0.19362266641110182,['space'],215.84617329994217,215.84617329994217,0.19362266641110182,2.3257839740395188,216.05617480003275,215.84617329994217,[-1.7504985998384655],,,,,,,,quvsxs,001,fr,0,2022-05-17_13h07.04.793,Continuous,2022.1.1,None,
6,0,6,0,3,0,3,0,,,,,,,,2.132161307628417,time,652.0,1.1819364434499577,5.641237486419851e-05,0,40,[],0.00379826663993299,0.19547546678222716,['space'],218.21739210002124,218.21739210002124,0.19547546678222716,2.327636774410644,218.42887619999237,218.21739210002124,[-1.8814193999860436],,,,,,,,quvsxs,001,fr,0,2022-05-17_13h07.04.793,Continuous,2022.1.1,None,
6,0,6,0,4,0,4,0,,,,,,,,2.132161307628417,time,3689.0,0.0,7.848087482703279e-05,0,41,[],0.00380886672064662,0.19445076654665172,None,220.58510689996183,220.58510689996183,0.19445076654665172,2.3266120741750687,220.79705319995992,220.58510689996183,,,,,,,,,quvsxs,001,fr,0,2022-05-17_13h07.04.793,Continuous,2022.1.1,None,
6,0,6,0,5,0,5,0,,,,,,,,2.132161307628417,time,732.0,1.0698667234465398,4.775419267246184e-05,0,42,[],0.008244966622442007,0.20481216651387513,['space'],222.95848509995267,222.95848509995267,0.20481216651387513,2.336973474142292,223.1718883998692,222.95848509995267,[-1.958218699786812],,,,,,,,quvsxs,001,fr,0,2022-05-17_13h07.04.793,Continuous,2022.1.1,None,
6,0,6,0,6,0,6,0,,,,,,,,2.132161307628417,time,388.0,5.0726084932372135,0.00014286422920251735,0,43,[],0.00861006649211049,0.2075760664884001,None,225.3279152000323,225.3279152000323,0.2075760664884001,2.339737374116817,225.54089599987492,225.3279152000323,,,,,,,,,quvsxs,001,fr,0,2022-05-17_13h07.04.793,Continuous,2022.1.1,None,
6,0,6,0,7,0,7,0,,,,,,,,2.132161307628417,time,435.0,1.572381207429265,8.960311955065546e-05,0,44,[],0.0019006666261702776,0.1896954665426165,['space'],227.69793200003915,227.69793200003915,0.1896954665426165,2.3218567741710334,227.9060349999927,227.69793200003915,[-1.905793899903074],,,,,,,,quvsxs,001,fr,0,2022-05-17_13h07.04.793,Continuous,2022.1.1,None,
6,0,6,0,8,0,8,0,,,,,,,,2.132161307628417,time,6964.0,-3.469049369126872,0.00010070027027193415,0,45,[],0.008376966696232557,None,None,230.06839199992828,230.06839199992828,0.2092590667307377,2.3414203743591546,230.27558939997107,230.06839199992828,,,,,,,,,quvsxs,001,fr,0,2022-05-17_13h07.04.793,Continuous,2022.1.1,None,
6,0,6,0,9,0,9,0,,,,,,,,2.132161307628417,time,4648.0,-0.8277392699050834,0.00011684371644015788,0,46,[],0.008000366389751434,None,['space'],232.43822490004823,232.43822490004823,0.2074103665072471,2.339571674135664,232.65236900001764,232.43822490004823,[-0.8867693000938743],,,,,,,,quvsxs,001,fr,0,2022-05-17_13h07.04.793,Continuous,2022.1.1,None,
6,0,6,0,10,0,10,0,,,,,,,,2.132161307628417,time,,,,1,46,[],0.00536416657269001,None,['space'],234.81581140006892,234.81581140006892,0.2180142665747553,2.3501755742031722,235.03953130007721,234.81581140006892,[-1.776367099955678],,,,,,,,quvsxs,001,fr,0,2022-05-17_13h07.04.793,Continuous,2022.1.1,None,
6,0,6,0,11,0,11,0,,,,,,,,2.132161307628417,time,1741.0,0.47557770870310845,6.666933429093271e-05,0,47,[],0.009314866503700614,None,None,237.19471579999663,237.19471579999663,0.20732226641848683,2.3394835740469038,237.40832410007715,237.19471579999663,,,,,,,,,quvsxs,001,fr,0,2022-05-17_13h07.04.793,Continuous,2022.1.1,None,
7,0,7,0,0,0,0,0,,,,,"[0.5833333333333334, 0.5833333333333334, 0.16666666666666666, 0.16666666666666666, 0.16666666666666666, 0.3333333333333333, 0.16666666666666666, 0.16666666666666666, 0.16666666666666666, 0.5833333333333334, 0.16666666666666666, 0.3333333333333333, 0.16666666666666666, 0.3333333333333333, 0.3333333333333333]",248.49957820004784,None,2.0898144654293023,none,318.0,4.150480585595531,0.00015777955476789333,0,64,[],0.012328766519203782,None,None,249.54628459992819,None,0.21949196653440595,2.309306431963708,249.7568846999202,None,,239.56847549998201,None,,,,,,quvsxs,001,fr,0,2022-05-17_13h07.04.793,Continuous,2022.1.1,None,
7,0,7,0,1,0,1,0,,,,,,,,2.3240784714601297,none,714.0,3.2073147830261117,6.336137728335647e-05,0,65,[],0.000969466520473361,0.19056786666624248,None,251.87378420005552,251.87378420005552,0.19056786666624248,2.514646338126372,252.0891352999024,251.87378420005552,,,,,,,,,quvsxs,001,fr,0,2022-05-17_13h07.04.793,Continuous,2022.1.1,None,
7,0,7,0,2,0,2,0,,,,,,,,2.6833604463739347,none,450.0,5.149941373205915,0.0001338831932991837,0,66,[],0.0050433664582669735,None,None,254.4354413000401,254.4354413000401,0.20146436640061438,2.884824812774549,254.65191549994051,254.4354413000401,,,,,,,,,quvsxs,001,fr,0,2022-05-17_13h07.04.793,Continuous,2022.1.1,None,
7,0,7,0,3,0,3,0,,,,,,,,2.0030891689481365,none,401.0,5.305284782203689,0.0001409107978014146,0,67,[],0.008096366422250867,None,['space'],257.36825769999996,257.36825769999996,0.20809446647763252,2.211183635425769,257.57942730002105,257.36825769999996,[-2.2569085999857634],,,,,,,,quvsxs,001,fr,0,2022-05-17_13h07.04.793,Continuous,2022.1.1,None,
7,0,7,0,4,0,4,0,,,,,,,,1.084669197381361,none,567.0,4.26276143747644,9.963587491886673e-05,0,68,[],0.0013169667217880487,0.19417536677792668,None,259.6146482999902,259.6146482999902,0.19417536677792668,1.2788445641592876,259.8291885999497,259.6146482999902,,,,,,,,,quvsxs,001,fr,0,2022-05-17_13h07.04.793,Continuous,2022.1.1,None,
7,0,7,0,5,0,5,0,,,,,,,,2.796679339434109,none,283.0,4.700327101462875,0.00022766961323185186,0,69,[],0.00806406675837934,None,['space'],260.9353998999577,260.9353998999577,0.20831846678629518,3.004997806220404,261.1463633000385,260.9353998999577,[-0.7993783999700099],,,,,,,,quvsxs,001,fr,0,2022-05-17_13h07.04.793,Continuous,2022.1.1,None,
7,0,7,0,6,0,6,0,,,,,,,,1.578498742875324,none,,,,1,69,[],0.0007604665588587523,0.1895279665477574,None,263.97092520003207,263.97092520003207,0.1895279665477574,1.7680267094230815,264.182702699909,263.97092520003207,,,,,,,,,quvsxs,001,fr,0,2022-05-17_13h07.04.793,Continuous,2022.1.1,None,
7,0,7,0,7,0,7,0,,,,,,,,2.8507118732037435,none,189.0,5.0,0.0005432714291414459,0,70,[],0.009282766841351986,None,None,265.7898385000881,265.7898385000881,0.2093086668755859,3.0600205400793294,266.00273309997283,265.7898385000881,,,,,,,,,quvsxs,001,fr,0,2022-05-17_13h07.04.793,Continuous,2022.1.1,None,
7,0,7,0,8,0,8,0,,,,,,,,2.9334368967409783,none,150.0,3.4074391517936378,0.0007404091610449054,0,71,[],0.005647666752338409,0.19866006658412516,['space'],268.88308189995587,268.88308189995587,0.19866006658412516,3.1320969633251035,269.09243660001084,268.88308189995587,[-2.4356536001432687],,,,,,,,quvsxs,001,fr,0,2022-05-17_13h07.04.793,Continuous,2022.1.1,None,
7,0,7,0,9,0,9,0,,,,,,,,2.83169798708517,none,134.0,4.979296233274817,0.0011399921049788286,0,72,[],0.003428266616538167,0.19186866655945778,None,272.0549788000062,272.0549788000062,0.19186866655945778,3.023566653644628,272.2598572000861,272.0549788000062,,,,,,,,,quvsxs,001,fr,0,2022-05-17_13h07.04.793,Continuous,2022.1.1,None,
8,0,8,0,0,0,0,0,,,,,,279.0264753000811,None,2.1635994647785592,frequency,1701.0,0.8571994555171248,6.767034701377937e-05,0,37,[],0.012616466963663697,None,None,280.04956459999084,None,0.22156566684134305,2.3851651316199023,280.2658055999782,None,,275.12200609990396,None,0.16666666666666666,,,,,quvsxs,001,fr,0,2022-05-17_13h07.04.793,Continuous,2022.1.1,None,
8,0,8,0,1,0,1,0,,,,,,,,2.386519675953801,frequency,1909.0,0.450365933820002,7.446551862600133e-05,0,38,[],0.007085766643285751,None,None,282.4587669998873,282.4587669998873,0.2087165666744113,2.5952362426282125,282.6664430000819,282.4587669998873,,,,,,,,,quvsxs,001,fr,0,2022-05-17_13h07.04.793,Continuous,2022.1.1,None,
8,0,8,0,2,0,2,0,,,,,,,,2.2256388873022876,frequency,2143.0,-0.13620339393728442,7.676840983150839e-05,0,39,[],0.004439366515725851,0.1948045666795224,['space'],285.0851777999196,285.0851777999196,0.1948045666795224,2.42044345398181,285.29123670002446,285.0851777999196,[-2.109444099944085],,,,,,,,quvsxs,001,fr,0,2022-05-17_13h07.04.793,Continuous,2022.1.1,None,
8,0,8,0,3,0,3,0,,,,,,,,2.873305892483743,frequency,2405.0,0.806420389432365,9.194132655637712e-05,0,40,[],0.0064179664477705956,None,['space'],287.5547972000204,287.5547972000204,0.2207745665218681,3.0940804590056112,287.772729099961,287.5547972000204,[-1.9792909999378026],,,,,,,,quvsxs,001,fr,0,2022-05-17_13h07.04.793,Continuous,2022.1.1,None,
8,0,8,0,4,0,4,0,,,,,,,,2.768168717944587,frequency,2700.0,0.4949908359553859,7.77751320776654e-05,0,41,[],0.0073360668029636145,None,['space'],290.66677609994076,290.66677609994076,0.20859256689436734,2.9767612848389544,290.8802708000876,290.66677609994076,[-2.6587716001085937],,,,,,,,quvsxs,001,fr,0,2022-05-17_13h07.04.793,Continuous,2022.1.1,None,
8,0,8,0,5,0,5,0,,,,,,,,2.801032984043398,frequency,,,,1,41,[],0.003444266738370061,0.19378986675292253,['space'],293.67770870006643,293.67770870006643,0.19378986675292253,2.9948228507963206,293.89268540008925,293.67770870006643,[-2.5659961998462677],,,,,,,,quvsxs,001,fr,0,2022-05-17_13h07.04.793,Continuous,2022.1.1,None,
8,0,8,0,6,0,6,0,,,,,,,,2.8127191317846467,frequency,3402.0,0.8192222273038146,8.070689079023052e-05,0,42,[],0.00830866675823927,None,None,296.71963760000654,296.71963760000654,0.20594116672873497,3.0186602985133817,296.9334249999374,296.71963760000654,,,,,,,,,quvsxs,001,fr,0,2022-05-17_13h07.04.793,Continuous,2022.1.1,None,
8,0,8,0,7,0,7,0,,,,,,,,1.5034194651219501,frequency,3819.0,0.017279674931471395,8.092373757418894e-05,0,43,[],0.0003826664760708809,0.19150486658327281,['space'],299.77632709988393,299.77632709988393,0.19150486658327281,1.694924331705223,299.9861284000799,299.77632709988393,[-2.5923180000390857],,,,,,,,quvsxs,001,fr,0,2022-05-17_13h07.04.793,Continuous,2022.1.1,None,
8,0,8,0,8,0,8,0,,,,,,,,1.2776553062350853,frequency,4287.0,1.0,0.00011633926740972701,0,44,[],0.007595166796818376,None,None,301.51176699995995,301.51176699995995,0.2077924667391926,1.4854477729742779,301.71794239990413,301.51176699995995,,,,,,,,,quvsxs,001,fr,0,2022-05-17_13h07.04.793,Continuous,2022.1.1,None,
8,0,8,0,9,0,9,0,,,,,,,,1.6698023306173961,frequency,4812.0,-1.120024877955283,0.00012289627390891977,0,45,[],0.01628103363327682,None,['space'],303.02933809999377,303.02933809999377,0.23410223377868533,1.9039045643960815,303.256087299902,303.02933809999377,[-0.5177432999480516],,,,,,,,quvsxs,001,fr,0,2022-05-17_13h07.04.793,Continuous,2022.1.1,None,
8,0,8,0,10,0,10,0,,,,,,,,1.5515214402086732,frequency,5401.0,-2.536902811654228,0.00010301578957010225,0,46,[],0.006951166549697518,None,"['space', 'space']",304.9526921999641,304.9526921999641,0.20387136656790972,1.755392806776583,305.1588485999964,304.9526921999641,"[-1.2493574998807162, -0.21712619997560978]",,,,,,,,quvsxs,001,fr,0,2022-05-17_13h07.04.793,Continuous,2022.1.1,None,
8,0,8,0,11,0,11,0,,,,,,,,1.9151521751962117,frequency,6062.0,-3.339613841112289,8.087330166763161e-05,0,47,[],0.0045151663944125175,0.1968699663411826,['space'],306.7401542000007,306.7401542000007,0.1968699663411826,2.1120221415373943,306.94820849993266,306.7401542000007,[-0.604815199971199],,,,,,,,quvsxs,001,fr,0,2022-05-17_13h07.04.793,Continuous,2022.1.1,None,
8,0,8,0,12,0,12,0,,,,,,,,2.483052051564056,frequency,6804.0,0.3265243611938322,0.0001508510186563865,0,48,[],0.003061266615986824,0.19372206670232117,None,308.894469199935,308.894469199935,0.19372206670232117,2.676774118266377,309.0979374998715,308.894469199935,,,,,,,,,quvsxs,001,fr,0,2022-05-17_13h07.04.793,Continuous,2022.1.1,None,
8,0,8,0,13,0,13,0,,,,,,,,2.9022279614756163,frequency,7637.0,-1.2228200052119138,0.00014814061275331104,0,49,[],0.005893966415897012,0.2010865663178265,"['space', 'space']",311.6121123000048,311.6121123000048,0.2010865663178265,3.103314527793443,311.81692510005087,311.6121123000048,"[-2.3960147998295724, -1.7567263999953866]",,,,,,,,quvsxs,001,fr,0,2022-05-17_13h07.04.793,Continuous,2022.1.1,None,
9,0,9,0,0,0,0,0,,,,,,316.98076539998874,None,2.5880315152155284,both,158.0,-0.7024602604271148,0.00039560368505776406,0,27,[],0.012987766647711396,None,None,318.01238449988887,None,0.2183471666648984,2.806378681880427,318.2194520998746,None,,314.7490642000921,None,0.5833333333333334,,,,,quvsxs,001,fr,0,2022-05-17_13h07.04.793,Continuous,2022.1.1,None,
9,0,9,0,1,0,1,0,,,,,,,,2.5880315152155284,both,236.0,-0.16939562826242027,0.00019114696889056278,0,28,[],0.005610566586256027,None,None,320.8383670998737,320.8383670998737,0.2003247665707022,2.7883562817862306,321.05217749997973,320.8383670998737,,,,,,,,,quvsxs,001,fr,0,2022-05-17_13h07.04.793,Continuous,2022.1.1,None,
9,0,9,0,2,0,2,0,,,,,,,,2.5880315152155284,both,354.0,-1.0,7.887248739356936e-05,0,29,[],0.007177766878157854,None,None,323.6681591998786,323.6681591998786,0.20588286686688662,2.793914382082415,323.885919699911,323.6681591998786,,,,,,,,,quvsxs,001,fr,0,2022-05-17_13h07.04.793,Continuous,2022.1.1,None,
9,0,9,0,3,0,3,0,,,,,,,,2.5880315152155284,both,530.0,1.0392589332911788,7.525056456108937e-05,0,30,[],0.0034585664980113506,0.19777576648630202,None,326.49564970005304,326.49564970005304,0.19777576648630202,2.7858072817018305,326.70384639990516,326.49564970005304,,,,,,,,,quvsxs,001,fr,0,2022-05-17_13h07.04.793,Continuous,2022.1.1,None,
9,0,9,0,4,0,4,0,,,,,,,,2.5880315152155284,both,794.0,0.5012352212762995,4.093632636967124e-05,0,31,[],0.006603166926652193,None,None,329.3249937000219,329.3249937000219,0.2072468667756766,2.795278381991205,329.53470130008645,329.3249937000219,,,,,,,,,quvsxs,001,fr,0,2022-05-17_13h07.04.793,Continuous,2022.1.1,None,
9,0,9,0,5,0,5,0,,,,,,,,2.5880315152155284,both,,,,1,31,[],0.0034797664266079664,None,None,332.1531277000904,332.1531277000904,0.19440476642921567,2.782436281644744,332.36420090007596,332.1531277000904,,,,,,,,,quvsxs,001,fr,0,2022-05-17_13h07.04.793,Continuous,2022.1.1,None,
9,0,9,0,6,0,6,0,,,,,,,,2.5880315152155284,both,1783.0,-0.52848318178307,6.117581755590707e-05,0,32,[],0.007978066802024841,None,None,334.985637600068,334.985637600068,0.20445836684666574,2.792489882062194,335.2043812999036,334.985637600068,,,,,,,,,quvsxs,001,fr,0,2022-05-17_13h07.04.793,Continuous,2022.1.1,None,
9,0,9,0,7,0,7,0,,,,,,,,2.5880315152155284,both,2671.0,-0.9843730567305378,6.72043338173851e-05,0,33,[],0.00645266636274755,None,None,337.8186566999648,337.8186566999648,0.2050922664348036,2.793123781650332,338.03363039996475,337.8186566999648,,,,,,,,,quvsxs,001,fr,0,2022-05-17_13h07.04.793,Continuous,2022.1.1,None,
9,0,9,0,8,0,8,0,,,,,,,,2.5880315152155284,both,4002.0,-0.9014290605718315,7.57896587206554e-05,0,34,[],0.003911866806447506,0.19541596667841077,['space'],340.6427809998859,340.6427809998859,0.19541596667841077,2.783447481893939,340.84635840007104,340.6427809998859,[-2.4657026999630034],,,,,,,,quvsxs,001,fr,0,2022-05-17_13h07.04.793,Continuous,2022.1.1,None,
10,0,10,0,0,0,0,0,,,,,"[0.5833333333333334, 0.16666666666666666, 0.3333333333333333, 0.16666666666666666, 0.16666666666666666, 0.3333333333333333, 0.5833333333333334, 0.3333333333333333, 0.16666666666666666, 0.3333333333333333, 0.16666666666666666, 0.5833333333333334, 0.5833333333333334, 0.16666666666666666, 0.5833333333333334]",349.1258344000671,None,2.594647367277879,none,2997.0,0.14646420219181466,5.594580539516259e-05,0,73,[],0.012855166802182794,None,['space'],350.14657919993624,None,0.21545686665922403,2.810104233937103,350.3534601998981,None,[-1.9792999001219869],343.4633834999986,None,,,,,,quvsxs,001,fr,0,2022-05-17_13h07.04.793,Continuous,2022.1.1,None,
10,0,10,0,1,0,1,0,,,,,,,,1.1905792839084004,none,5657.0,-4.646468404677605,7.527340993448331e-05,0,74,[],0.014984033536165953,None,None,352.98304029996507,352.98304029996507,0.23390453355386853,1.424483817462269,353.21015909989364,352.98304029996507,,,,,,,,,quvsxs,001,fr,0,2022-05-17_13h07.04.793,Continuous,2022.1.1,None,
10,0,10,0,2,0,2,0,,,,,,,,2.173072225538178,none,1682.0,-0.5401851663232071,5.6807971892528404e-05,0,75,[],0.00215356657281518,0.19352316670119762,['space'],354.42544710007496,354.42544710007496,0.19352316670119762,2.3665953922393754,354.6314326999709,354.42544710007496,[-0.9936695999931544],,,,,,,,quvsxs,001,fr,0,2022-05-17_13h07.04.793,Continuous,2022.1.1,None,
10,0,10,0,3,0,3,0,,,,,,,,1.4913514908434757,none,8000.0,-4.0,0.00011454338263838867,0,76,[],0.00614646659232676,None,None,356.8400355000049,356.8400355000049,0.20745826652273536,1.698809757366211,357.0600328000728,356.8400355000049,,,,,,,,,quvsxs,001,fr,0,2022-05-17_13h07.04.793,Continuous,2022.1.1,None,
10,0,10,0,4,0,4,0,,,,,,,,1.2936780143146749,none,7127.0,-4.0,9.78465417894749e-05,0,77,[],0.005106866825371981,0.20012516668066382,['space'],358.57768919994123,358.57768919994123,0.20012516668066382,1.4938031809953387,358.7897397999186,358.57768919994123,[-1.1535687998402864],,,,,,,,quvsxs,001,fr,0,2022-05-17_13h07.04.793,Continuous,2022.1.1,None,
10,0,10,0,5,0,5,0,,,,,,,,2.461919095613055,none,,,,1,77,[],0.006251966580748558,None,['space'],360.1121203000657,360.1121203000657,0.2044035664293915,2.6663226620424467,360.3311715000309,360.1121203000657,[-1.0882937998976558],,,,,,,,quvsxs,001,fr,0,2022-05-17_13h07.04.793,Continuous,2022.1.1,None,
10,0,10,0,6,0,6,0,,,,,,,,1.5816677988394463,none,2379.0,-1.5046420361843598,6.997775629485912e-05,0,78,[],0.003449766431003809,0.19202346657402813,None,362.8173001999967,362.8173001999967,0.19202346657402813,1.7736912654134744,363.02890729997307,362.8173001999967,,,,,,,,,quvsxs,001,fr,0,2022-05-17_13h07.04.793,Continuous,2022.1.1,None,
10,0,10,0,7,0,7,0,,,,,,,,1.9541635474979921,none,1888.0,-0.5039288240538307,6.582284198715687e-05,0,79,[],0.0030684664379805326,0.1928745664190501,['space'],364.63737450004555,364.63737450004555,0.1928745664190501,2.1470381139170422,364.843798100017,364.63737450004555,[-1.1574494999367744],,,,,,,,quvsxs,001,fr,0,2022-05-17_13h07.04.793,Continuous,2022.1.1,None,
10,0,10,0,8,0,8,0,,,,,,,,1.8637702218605006,none,2670.0,-3.2901576475851515,5.1578233268995096e-05,0,80,[],0.0059652666095644236,None,['space'],366.831857400015,366.831857400015,0.20615236647427082,2.069922588334771,367.0441187999677,366.831857400015,[-1.6394642000086606],,,,,,,,quvsxs,001,fr,0,2022-05-17_13h07.04.793,Continuous,2022.1.1,None,
10,0,10,0,9,0,9,0,,,,,,,,1.8163028716959153,none,3776.0,-2.119519585166117,6.268416989684113e-05,0,81,[],0.0016432665288448334,0.1902626664377749,['space'],368.9408255000599,368.9408255000599,0.1902626664377749,2.00656553813369,369.1441438999027,368.9408255000599,[-1.668989700032398],,,,,,,,quvsxs,001,fr,0,2022-05-17_13h07.04.793,Continuous,2022.1.1,None,
11,0,11,0,0,0,0,0,,,,,,376.7158325999044,None,1.1022304947581636,frequency,147.0,4.651014971159701,0.0009000036533325684,0,50,[],0.012768666492775083,None,None,377.76278509991243,None,0.2276437666732818,1.3298742614314454,377.97905880003236,None,,370.99121759994887,None,0.5833333333333334,,,,,quvsxs,001,fr,0,2022-05-17_13h07.04.793,Continuous,2022.1.1,None,
11,0,11,0,1,0,1,0,,,,,,,,1.3386891113806272,frequency,220.0,2.716862507632051,0.0003093484024387718,0,51,[],0.003319966606795788,0.19586806651204824,None,379.09984549996443,379.09984549996443,0.19586806651204824,1.5345571778926754,379.31220240006223,379.09984549996443,,,,,,,,,quvsxs,001,fr,0,2022-05-17_13h07.04.793,Continuous,2022.1.1,None,
11,0,11,0,2,0,2,0,,,,,,,,2.6387778902892536,frequency,330.0,6.0,0.00018900521736310406,0,52,[],0.005189066287130117,0.20036966633051634,None,380.68541690008715,380.68541690008715,0.20036966633051634,2.83914755661977,380.89219529996626,380.68541690008715,,,,,,,,,quvsxs,001,fr,0,2022-05-17_13h07.04.793,Continuous,2022.1.1,None,
11,0,11,0,3,0,3,0,,,,,,,,1.5458195450022787,frequency,494.0,5.548973055245338,0.0001359184134082156,0,53,[],0.014976333361119032,None,['space'],383.56526659987867,383.56526659987867,0.22478323336690664,1.7706027783691853,383.7965788000729,383.56526659987867,[-2.2775075000245124],,,,,,,,quvsxs,001,fr,0,2022-05-17_13h07.04.793,Continuous,2022.1.1,None,
11,0,11,0,4,0,4,0,,,,,,,,1.9068828159083004,frequency,,,,1,53,[],0.0019872665870934725,0.19298826646991074,['space'],385.3591368000489,385.3591368000489,0.19298826646991074,2.099871082378211,385.57265880005434,385.3591368000489,[-1.2872822999488562],,,,,,,,quvsxs,001,fr,0,2022-05-17_13h07.04.793,Continuous,2022.1.1,None,
11,0,11,0,5,0,5,0,,,,,,,,1.0707949080155736,frequency,1109.0,0.773244095125627,5.31376228193247e-05,0,54,[],0.0029901666566729546,0.19655426661483943,None,387.5100992000662,387.5100992000662,0.19655426661483943,1.267349174630413,387.72424110001884,387.5100992000662,,,,,,,,,quvsxs,001,fr,0,2022-05-17_13h07.04.793,Continuous,2022.1.1,None,
11,0,11,0,6,0,6,0,,,,,,,,2.4857496579853713,frequency,1662.0,3.6977417732276803,9.115260766168946e-05,0,55,[],0.005839566700160503,0.20097566675394773,None,388.8255205000751,388.8255205000751,0.20097566675394773,2.686725324739319,389.0326318999287,388.8255205000751,,,,,,,,,quvsxs,001,fr,0,2022-05-17_13h07.04.793,Continuous,2022.1.1,None,
11,0,11,0,7,0,7,0,,,,,,,,2.983985949604828,frequency,2490.0,1.556227326171451,0.00010248472164936626,0,56,[],0.0019502665381878614,None,None,391.5489077998791,391.5489077998791,0.19275086652487516,3.1767368161297034,391.76106319995597,391.5489077998791,,,,,,,,,quvsxs,001,fr,0,2022-05-17_13h07.04.793,Continuous,2022.1.1,None,
11,0,11,0,8,0,8,0,,,,,,,,1.2619227488741844,frequency,3731.0,4.691421030672127,0.00013595517147367702,0,57,[],0.005214866483584046,0.2017814666032791,['space'],394.78030580002815,394.78030580002815,0.2017814666032791,1.4637042154774635,394.99150800006464,394.78030580002815,[-2.780860599828884],,,,,,,,quvsxs,001,fr,0,2022-05-17_13h07.04.793,Continuous,2022.1.1,None,
12,0,12,0,0,0,0,0,,,,,,411.5634568000678,None,2.5033129684664406,frequency,158.0,8.779513060742156,0.00117857980307832,0,58,[],0.012620766647160053,None,None,412.6107592000626,None,0.20681206649169326,2.710125034958134,412.818022799911,None,,396.2775820000097,None,0.16666666666666666,,,,,quvsxs,001,fr,0,2022-05-17_13h07.04.793,Continuous,2022.1.1,None,
12,0,12,0,1,0,1,0,,,,,,,,1.0330281506836931,frequency,177.0,10.0,0.0011042917282610592,0,59,[],0.004786566598340869,0.1928446665406227,None,415.3538029999472,415.3538029999472,0.1928446665406227,1.2258728172243158,415.5556475999765,415.3538029999472,,,,,,,,,quvsxs,001,fr,0,2022-05-17_13h07.04.793,Continuous,2022.1.1,None,
12,0,12,0,2,0,2,0,,,,,,,,1.7573176451128403,frequency,199.0,4.325724948750767,0.00044276618418941755,0,60,[],0.004231366561725736,None,['space'],416.62514159991406,416.62514159991406,0.22287306655198336,1.9801907116648236,416.8420539998915,416.62514159991406,[-0.44999930006451905],,,,,,,,quvsxs,001,fr,0,2022-05-17_13h07.04.793,Continuous,2022.1.1,None,
12,0,12,0,3,0,3,0,,,,,,,,2.678192630931388,frequency,223.0,6.20655612366932,0.00045029970437060447,0,61,[],0.0013726665638387203,None,None,418.6275237998925,418.6275237998925,0.19858046667650342,2.8767730976078916,418.84527139994316,418.6275237998925,,,,,,,,,quvsxs,001,fr,0,2022-05-17_13h07.04.793,Continuous,2022.1.1,None,
12,0,12,0,4,0,4,0,,,,,,,,1.4772803634362008,frequency,,,,1,61,[],0.00509886653162539,None,"['space', 'space']",421.55997729999945,421.55997729999945,0.21304396633058786,1.6903243297667887,421.7730727000162,421.55997729999945,"[-2.616863999981433, -0.6954678001347929]",,,,,,,,quvsxs,001,fr,0,2022-05-17_13h07.04.793,Continuous,2022.1.1,None,
12,0,12,0,5,0,5,0,,,,,,,,2.510858167213458,frequency,281.0,9.207463915404713,0.00038864282887530246,0,62,[],0.0049709666054695845,None,None,423.2804672999773,423.2804672999773,0.20689206663519144,2.7177502338486494,423.50123349996284,423.2804672999773,,,,,,,,,quvsxs,001,fr,0,2022-05-17_13h07.04.793,Continuous,2022.1.1,None,
12,0,12,0,6,0,6,0,,,,,,,,1.6339558007495545,frequency,315.0,6.867896108738322,0.0002174527026655257,0,63,[],0.0047969666775316,None,None,426.0496743998956,426.0496743998956,0.21835196670144796,1.8523077674510025,426.26591489999555,426.0496743998956,,,,,,,,,quvsxs,001,fr,0,2022-05-17_13h07.04.793,Continuous,2022.1.1,None,
12,0,12,0,7,0,7,0,,,,,,,,1.6006526948959123,frequency,354.0,6.882367906209067,0.00019545371641594867,0,64,[],0.01395753351971507,0.21097053331322968,None,427.92912689992227,427.92912689992227,0.21097053331322968,1.811623228209142,428.14262689999305,427.92912689992227,,,,,,,,,quvsxs,001,fr,0,2022-05-17_13h07.04.793,Continuous,2022.1.1,None,
12,0,12,0,8,0,8,0,,,,,,,,2.361866417900968,frequency,397.0,6.156568641487043,0.0001571065940959683,0,65,[],0.0017748665995895863,None,['space'],429.7707906998694,429.7707906998694,0.20511076669208705,2.566977184593055,429.9874682999216,429.7707906998694,[-1.3476733998395503],,,,,,,,quvsxs,001,fr,0,2022-05-17_13h07.04.793,Continuous,2022.1.1,None,
12,0,12,0,9,0,9,0,,,,,,,,1.055876387863874,frequency,446.0,9.940908035097802,0.00023306242716588987,0,66,[],0.004397366428747773,None,None,432.3883712000679,432.3883712000679,0.21608006651513278,1.2719564543790067,432.6064706000034,432.3883712000679,,,,,,,,,quvsxs,001,fr,0,2022-05-17_13h07.04.793,Continuous,2022.1.1,None,
12,0,12,0,10,0,10,0,,,,,,,,2.367314564571031,frequency,501.0,9.410223428929296,0.0002106356375951821,0,67,[],0.004763766657561064,None,None,433.69027810008265,433.69027810008265,0.2106625665910542,2.5779771311620854,433.9081681999378,433.69027810008265,,,,,,,,,quvsxs,001,fr,0,2022-05-17_13h07.04.793,Continuous,2022.1.1,None,
12,0,12,0,11,0,11,0,,,,,,,,1.032783263076674,frequency,562.0,7.149223370150415,0.0001406881685454703,0,68,[],0.0008530665654689074,None,['space'],436.29821199993603,436.29821199993603,0.20323316659778357,1.2360164296744576,436.51873919996433,436.29821199993603,[-1.8906009001657367],,,,,,,,quvsxs,001,fr,0,2022-05-17_13h07.04.793,Continuous,2022.1.1,None,
12,0,12,0,12,0,12,0,,,,,,,,1.2232666191962305,frequency,631.0,3.36867587775523,7.527639434036375e-05,0,69,[],0.00808583339676261,None,['space'],437.6021984999534,437.6021984999534,0.22532563330605626,1.4485922525022867,437.82724420004524,437.6021984999534,[-0.8905491000041366],,,,,,,,quvsxs,001,fr,0,2022-05-17_13h07.04.793,Continuous,2022.1.1,None,
12,0,12,0,13,0,13,0,,,,,,,,1.1286765744775027,frequency,708.0,2.665238032199494,6.024304485390998e-05,0,70,[],0.004467166494578123,None,None,439.07835180009715,439.07835180009715,0.20762086659669876,1.3362974410742015,439.29817990004085,439.07835180009715,,,,,,,,,quvsxs,001,fr,0,2022-05-17_13h07.04.793,Continuous,2022.1.1,None,
12,0,12,0,14,0,14,0,,,,,,,,2.1058735852774704,frequency,795.0,4.419198542512085,6.419418566444884e-05,0,71,[],0.000750366598367691,None,['space'],440.449875399936,440.449875399936,0.21087186667136848,2.316745451948839,440.6751085999422,440.449875399936,[-0.8812109001446515],,,,,,,,quvsxs,001,fr,0,2022-05-17_13h07.04.793,Continuous,2022.1.1,None,
13,0,13,0,0,0,0,0,,,,,"[0.3333333333333333, 0.5833333333333334, 0.5833333333333334, 0.5833333333333334, 0.3333333333333333, 0.5833333333333334, 0.3333333333333333, 0.5833333333333334, 0.16666666666666666, 0.16666666666666666, 0.3333333333333333, 0.16666666666666666, 0.3333333333333333, 0.16666666666666666, 0.5833333333333334]",453.3050247998908,None,2.1807125685750464,time,168.0,2.268459469265317,0.0004959865002885472,0,48,[],0.012729966780170798,None,None,454.3375603000168,None,0.2208498667459935,2.40156243532104,454.55176039994694,None,,442.8096135999076,None,,,,,,quvsxs,001,fr,0,2022-05-17_13h07.04.793,Continuous,2022.1.1,None,
13,0,13,0,1,0,1,0,,,,,,,,2.1807125685750464,time,378.0,5.172794640673905,0.00014923094976831614,0,49,[],0.00404296675696969,None,None,456.7644265999552,456.7644265999552,0.2071763665881008,2.387888935163147,456.98360259993933,456.7644265999552,,,,,,,,,quvsxs,001,fr,0,2022-05-17_13h07.04.793,Continuous,2022.1.1,None,
13,0,13,0,2,0,2,0,,,,,,,,2.1807125685750464,time,189.0,2.0,0.0003846067180370325,0,50,[],0.000864766538143158,None,['space'],459.19177219993435,459.19177219993435,0.20560866664163768,2.386321235216684,459.4090094000567,459.19177219993435,[-1.9766339999623597],,,,,,,,quvsxs,001,fr,0,2022-05-17_13h07.04.793,Continuous,2022.1.1,None,
13,0,13,0,3,0,3,0,,,,,,,,2.1807125685750464,time,,,,1,50,[],0.0018305666744709015,None,['space'],461.62054409994744,461.62054409994744,0.2037779667880386,2.384490535363085,461.84111170005053,461.62054409994744,[-1.7653646999970078],,,,,,,,quvsxs,001,fr,0,2022-05-17_13h07.04.793,Continuous,2022.1.1,None,
13,0,13,0,4,0,4,0,,,,,,,,2.1807125685750464,time,212.0,1.5845077033070758,0.0002903478375422887,0,51,[],0.004807166522368789,None,None,464.05837469990365,464.05837469990365,0.2127308666240424,2.3934434351990888,464.2732130999211,464.05837469990365,,,,,,,,,quvsxs,001,fr,0,2022-05-17_13h07.04.793,Continuous,2022.1.1,None,
13,0,13,0,5,0,5,0,,,,,,,,2.1807125685750464,time,635.0,2.235282395225317,6.56139722519343e-05,0,52,[],0.00020196661353111267,None,None,466.4791963000316,466.4791963000316,0.20697236666455865,2.387684935239605,466.6987838000059,466.4791963000316,,,,,,,,,quvsxs,001,fr,0,2022-05-17_13h07.04.793,Continuous,2022.1.1,None,
13,0,13,0,6,0,6,0,,,,,,,,2.1807125685750464,time,267.0,1.951743245172492,0.0001871325074420692,0,53,[],0.01662423345260322,None,"['space', 'space']",468.9148188000545,468.9148188000545,0.21529453340917826,2.3960071019842246,469.1329926000908,468.9148188000545,"[-1.7708237001206726, -0.6428426001220942]",,,,,,,,quvsxs,001,fr,0,2022-05-17_13h07.04.793,Continuous,2022.1.1,None,
13,0,13,0,7,0,7,0,,,,,,,,2.1807125685750464,time,300.0,2.5279588520090566,0.00015319689791781866,0,54,[],0.013137133559212089,None,['space'],471.3449196999427,471.3449196999427,0.21522633358836174,2.395938902163408,471.5655602000188,471.3449196999427,[-1.8879140999633819],,,,,,,,quvsxs,001,fr,0,2022-05-17_13h07.04.793,Continuous,2022.1.1,None,
14,0,14,0,0,0,0,0,,,,,,489.88803660008125,None,1.1340539424044367,both,141.0,4.0,0.0009196736265403496,0,35,[],0.012912366539239883,None,None,490.92266010004096,None,0.20991276670247316,1.3439667091069099,491.1293679999653,None,,473.7850265998859,None,0.16666666666666666,,,,,quvsxs,001,fr,0,2022-05-17_13h07.04.793,Continuous,2022.1.1,None,
14,0,14,0,1,0,1,0,,,,,,,,1.1340539424044367,both,158.0,3.862947299488211,0.0006691611308130252,0,36,[],0.01214223331771791,None,None,492.30010839994065,492.30010839994065,0.21424463344737887,1.3482985758518156,492.52986150002107,492.30010839994065,,,,,,,,,quvsxs,001,fr,0,2022-05-17_13h07.04.793,Continuous,2022.1.1,None,
14,0,14,0,2,0,2,0,,,,,,,,1.1340539424044367,both,177.0,3.252231671579423,0.0005078031641486387,0,37,[],0.0035980665124952793,None,None,493.6846433999017,493.6846433999017,0.21242306660860777,1.3464770090130445,493.902111900039,493.6846433999017,,,,,,,,,quvsxs,001,fr,0,2022-05-17_13h07.04.793,Continuous,2022.1.1,None,
14,0,14,0,3,0,3,0,,,,,,,,1.1340539424044367,both,199.0,3.288077679184124,0.00039290909435859975,0,38,[],0.0008860665839165449,None,None,495.05994320008904,495.05994320008904,0.20175156672485173,1.3358055091292884,495.2722974999342,495.05994320008904,,,,,,,,,quvsxs,001,fr,0,2022-05-17_13h07.04.793,Continuous,2022.1.1,None,
14,0,14,0,4,0,4,0,,,,,,,,1.1340539424044367,both,223.0,1.819115145655275,0.0002717250097068887,0,39,[],0.01661363337188959,None,['space'],496.442806399893,496.442806399893,0.22371893329545856,1.3577728756998952,496.66710840002634,496.442806399893,[0.21348540019243956],,,,,,,,quvsxs,001,fr,0,2022-05-17_13h07.04.793,Continuous,2022.1.1,None,
14,0,14,0,5,0,5,0,,,,,,,,1.1340539424044367,both,250.0,3.880294071556225,0.0002618090820137026,0,40,[],0.01634153351187706,None,None,497.834712699987,497.834712699987,0.21572753344662488,1.3497814758510616,498.05192960007116,497.834712699987,,,,,,,,,quvsxs,001,fr,0,2022-05-17_13h07.04.793,Continuous,2022.1.1,None,
14,0,14,0,6,0,6,0,,,,,,,,1.1340539424044367,both,,,,1,40,[],0.004138066666200757,None,None,499.2241289000958,499.2241289000958,0.21666586655192077,1.3507198089563575,499.4378591000568,499.2241289000958,,,,,,,,,quvsxs,001,fr,0,2022-05-17_13h07.04.793,Continuous,2022.1.1,None,
14,0,14,0,7,0,7,0,,,,,,,,1.1340539424044367,both,315.0,3.3818727212778197,0.00014556723754515077,0,41,[],0.0012544665951281786,0.19466016651131213,None,500.60033729998395,500.60033729998395,0.19466016651131213,1.3287141089157488,500.8161007000599,500.60033729998395,,,,,,,,,quvsxs,001,fr,0,2022-05-17_13h07.04.793,Continuous,2022.1.1,None,
14,0,14,0,8,0,8,0,,,,,,,,1.1340539424044367,both,354.0,4.0,0.0001402573203505389,0,42,[],0.01651923358440399,None,None,501.9850602000952,501.9850602000952,0.22460653353482485,1.3586604759392615,502.20835989993066,501.9850602000952,,,,,,,,,quvsxs,001,fr,0,2022-05-17_13h07.04.793,Continuous,2022.1.1,None,
14,0,14,0,9,0,9,0,,,,,,,,1.1340539424044367,both,397.0,4.376332244334546,0.0001279919317529122,0,43,[],0.0005035665817558765,None,['space'],503.3677435000427,503.3677435000427,0.20359656680375338,1.33765050920819,503.59084780002013,503.3677435000427,[-0.6635058999527246],,,,,,,,quvsxs,001,fr,0,2022-05-17_13h07.04.793,Continuous,2022.1.1,None,
14,0,14,0,10,0,10,0,,,,,,,,1.1340539424044367,both,446.0,4.450221278423025,0.0001238619540442988,0,44,[],0.015008433489128947,None,None,504.7550178999081,504.7550178999081,0.22287903353571892,1.3569329759401556,504.9796104999259,504.7550178999081,,,,,,,,,quvsxs,001,fr,0,2022-05-17_13h07.04.793,Continuous,2022.1.1,None,
14,0,14,0,11,0,11,0,,,,,,,,1.1340539424044367,both,501.0,4.712734469819811,0.00012264713387988182,0,45,[],0.016358533408492804,None,None,506.14253859990276,506.14253859990276,0.22246583341620862,1.3565197758206453,506.3670165000949,506.14253859990276,,,,,,,,,quvsxs,001,fr,0,2022-05-17_13h07.04.793,Continuous,2022.1.1,None,
14,0,14,0,12,0,12,0,,,,,,,,1.1340539424044367,both,562.0,4.07811134950514,9.878749547860118e-05,0,46,[],0.0030462665017694235,None,None,507.54131820006296,507.54131820006296,0.19615746662020683,1.3302114090246435,507.7442658999935,507.54131820006296,,,,,,,,,quvsxs,001,fr,0,2022-05-17_13h07.04.793,Continuous,2022.1.1,None,
14,0,14,0,13,0,13,0,,,,,,,,1.1340539424044367,both,631.0,3.8871888439001245,7.990693210738323e-05,0,47,[],0.01555363368242979,None,None,508.91269610007294,508.91269610007294,0.22221673373132944,1.3562706761357661,509.1393547998741,508.91269610007294,,,,,,,,,quvsxs,001,fr,0,2022-05-17_13h07.04.793,Continuous,2022.1.1,None,
14,0,14,0,14,0,14,0,,,,,,,,1.1340539424044367,both,708.0,3.9068458983719156,6.950040054541585e-05,0,48,[],0.0006156666204333305,None,None,510.3065732999239,510.3065732999239,0.21033756667748094,1.3443915090819176,510.52579750004224,510.3065732999239,,,,,,,,,quvsxs,001,fr,0,2022-05-17_13h07.04.793,Continuous,2022.1.1,None,
15,0,15,0,0,0,0,0,,,,,"[0.16666666666666666, 0.5833333333333334, 0.3333333333333333, 0.16666666666666666, 0.16666666666666666, 0.3333333333333333, 0.5833333333333334, 0.16666666666666666, 0.5833333333333334, 0.16666666666666666, 0.16666666666666666, 0.3333333333333333, 0.16666666666666666, 0.16666666666666666, 0.16666666666666666]",530.945383900078,None,2.0648419003176812,time,6350.0,-3.7454107754137276,8.545414629005826e-05,0,55,[],0.010009166551753879,None,None,531.9813999999315,None,0.20813456643372774,2.272976466751409,532.1985722000245,None,,511.6939131000545,None,,,,,,quvsxs,001,fr,0,2022-05-17_13h07.04.793,Continuous,2022.1.1,None,
15,0,15,0,1,0,1,0,,,,,,,,2.0648419003176812,time,3364.0,-0.855489908449983,6.59496417725476e-05,0,56,[],0.016430833376944065,None,['space'],534.2875576000661,534.2875576000661,0.2444392335601151,2.3092811338777963,534.5265112000052,534.2875576000661,[-1.3605553000234067],,,,,,,,quvsxs,001,fr,0,2022-05-17_13h07.04.793,Continuous,2022.1.1,None,
15,0,15,0,2,0,2,0,,,,,,,,2.0648419003176812,time,1415.0,0.8671964236104277,5.5705845858246316e-05,0,57,[],0.000345766544342041,0.19179066666401923,['space'],536.6162737000268,536.6162737000268,0.19179066666401923,2.2566325669817004,536.826244099997,536.6162737000268,[-1.8006839998997748],,,,,,,,quvsxs,001,fr,0,2022-05-17_13h07.04.793,Continuous,2022.1.1,None,
15,0,15,0,3,0,3,0,,,,,,,,2.0648419003176812,time,2245.0,-0.8265968274678382,7.295852448882263e-05,0,58,[],0.015980733325704932,None,['space'],538.9264245999511,538.9264245999511,0.20797533332370222,2.2728172336413834,539.1427831999026,538.9264245999511,[-1.6785697999875993],,,,,,,,quvsxs,001,fr,0,2022-05-17_13h07.04.793,Continuous,2022.1.1,None,
15,0,15,0,4,0,4,0,,,,,,,,2.0648419003176812,time,750.0,0.8518080877250267,4.4829140130100185e-05,0,59,[],4.7266483306884766e-05,0.1906685666181147,['space'],541.2381064998917,541.2381064998917,0.1906685666181147,2.255510466935796,541.448503700085,541.2381064998917,[-1.7581839000340551],,,,,,,,quvsxs,001,fr,0,2022-05-17_13h07.04.793,Continuous,2022.1.1,None,
15,0,15,0,5,0,5,0,,,,,,,,2.0648419003176812,time,5657.0,-2.0,0.00010208572337891864,0,60,[],0.00011366675607860088,0.1886905669234693,None,543.5462682999205,543.5462682999205,0.1886905669234693,2.2535324672411505,543.7538143000565,543.5462682999205,,,,,,,,,quvsxs,001,fr,0,2022-05-17_13h07.04.793,Continuous,2022.1.1,None,
15,0,15,0,6,0,6,0,,,,,,,,2.0648419003176812,time,,,,1,60,[],0.00015846663154661655,0.18962626648135483,['space'],545.8472794000991,545.8472794000991,0.18962626648135483,2.254468166799036,546.0529513999354,545.8472794000991,[-1.8388862998690456],,,,,,,,quvsxs,001,fr,0,2022-05-17_13h07.04.793,Continuous,2022.1.1,None,
15,0,15,0,7,0,7,0,,,,,,,,2.0648419003176812,time,1782.0,-1.6548332817279643,5.369830122155119e-05,0,61,[],0.0002623666077852249,0.18877246649935842,None,548.1459003000055,548.1459003000055,0.18877246649935842,2.2536143668170396,548.3560367999598,548.1459003000055,,,,,,,,,quvsxs,001,fr,0,2022-05-17_13h07.04.793,Continuous,2022.1.1,None,
15,0,15,0,8,0,8,0,,,,,,,,2.0648419003176812,time,7128.0,-2.7136829617337326,0.0001134870259445114,0,62,[],0.016591333551332355,None,None,550.45451579988,550.45451579988,0.2359167335089296,2.300758633826611,550.6820167999249,550.45451579988,,,,,,,,,quvsxs,001,fr,0,2022-05-17_13h07.04.793,Continuous,2022.1.1,None,
15,0,15,0,9,0,9,0,,,,,,,,2.0648419003176812,time,1123.0,-1.7504143083940715,4.0217909559055594e-05,0,63,[],0.016657433239743114,None,['space'],552.772903499892,552.772903499892,0.23853103327564895,2.30337293359333,553.0043313999195,552.772903499892,[-1.4851474000606686],,,,,,,,quvsxs,001,fr,0,2022-05-17_13h07.04.793,Continuous,2022.1.1,None,
15,0,15,0,10,0,10,0,,,,,,,,2.0648419003176812,time,1588.0,-0.8549847192873119,5.051177712976925e-05,0,64,[],0.0031368667259812355,0.1912262667901814,None,555.1009176999796,555.1009176999796,0.1912262667901814,2.2560681671078626,555.3009281998966,555.1009176999796,,,,,,,,,quvsxs,001,fr,0,2022-05-17_13h07.04.793,Continuous,2022.1.1,None,
16,0,16,0,0,0,0,0,,,,,,561.1109899999574,None,1.3808072021494298,frequency,125.0,9.0,0.0020369013890205647,0,72,[],0.013215766521170735,None,None,562.1535553999711,None,0.2200573666486889,1.6008645687981187,562.364728000015,None,,557.3949931999668,None,0.16666666666666666,,,,,quvsxs,001,fr,0,2022-05-17_13h07.04.793,Continuous,2022.1.1,None,
16,0,16,0,1,0,1,0,,,,,,,,2.8901738816420073,frequency,140.0,6.65116448651967,0.001267081309165489,0,73,[],0.011598733253777027,None,['space'],563.7740990999155,563.7740990999155,0.22879953333176672,3.118973414973774,564.0036396000069,563.7740990999155,[-0.622862899908796],,,,,,,,quvsxs,001,fr,0,2022-05-17_13h07.04.793,Continuous,2022.1.1,None,
16,0,16,0,2,0,2,0,,,,,,,,1.6264961118727919,frequency,157.0,6.099093661631146,0.0008836086809614371,0,74,[],0.01583483349531889,None,['space'],566.9210826999042,566.9210826999042,0.23764903331175447,1.8641451451845463,567.1559701999649,566.9210826999042,[-2.5056557999923825],,,,,,,,quvsxs,001,fr,0,2022-05-17_13h07.04.793,Continuous,2022.1.1,None,
16,0,16,0,3,0,3,0,,,,,,,,1.9411898008338053,frequency,176.0,6.6586198856974015,0.0007594876687070143,0,75,[],0.016571733634918928,None,['space'],568.8038119999692,568.8038119999692,0.20760923367924988,2.148799034513055,569.0156393998768,568.8038119999692,[-1.404314200161025],,,,,,,,quvsxs,001,fr,0,2022-05-17_13h07.04.793,Continuous,2022.1.1,None,
16,0,16,0,4,0,4,0,,,,,,,,1.7720727854368343,frequency,198.0,3.3599246037838197,0.0004015346750575667,0,76,[],0.015383433550596237,None,None,570.9927662000991,570.9927662000991,0.2366456335876137,2.008718419024448,571.2221107999794,570.9927662000991,,,,,,,,,quvsxs,001,fr,0,2022-05-17_13h07.04.793,Continuous,2022.1.1,None,
16,0,16,0,5,0,5,0,,,,,,,,2.2009870558898212,frequency,222.0,8.185257614055466,0.0005705327277424568,0,77,[],0.016346233431249857,None,['space'],573.021407400025,573.021407400025,0.2108640333171934,2.4118510892070146,573.2369444998913,573.021407400025,[-1.366147099994123],,,,,,,,quvsxs,001,fr,0,2022-05-17_13h07.04.793,Continuous,2022.1.1,None,
16,0,16,0,6,0,6,0,,,,,,,,2.844021276676706,frequency,,,,1,77,[],0.00019776658155024052,None,None,575.4731966999825,575.4731966999825,0.19253566674888134,3.0365569434255875,575.6835086999927,575.4731966999825,,,,,,,,,quvsxs,001,fr,0,2022-05-17_13h07.04.793,Continuous,2022.1.1,None,
16,0,16,0,7,0,7,0,,,,,,,,2.799361301093395,frequency,279.0,2.890268638504077,0.0001907533079916771,0,78,[],0.016460333485156298,None,None,578.5615107999183,578.5615107999183,0.23677583341486752,3.0361371345082624,578.7886127000675,578.5615107999183,,,,,,,,,quvsxs,001,fr,0,2022-05-17_13h07.04.793,Continuous,2022.1.1,None,
16,0,16,0,8,0,8,0,,,,,,,,2.5197146173068625,frequency,313.0,5.6791912744969455,0.00019371413655732477,0,79,[],0.016123033594340086,None,None,581.6188163999468,581.6188163999468,0.2353314335923642,2.7550460508992267,581.8471323999111,581.6188163999468,,,,,,,,,quvsxs,001,fr,0,2022-05-17_13h07.04.793,Continuous,2022.1.1,None,
16,0,16,0,9,0,9,0,,,,,,,,1.2542138397506595,frequency,351.0,7.60020631584233,0.00021416140754284288,0,80,[],0.013442133320495486,None,['space'],584.3937476000283,584.3937476000283,0.20252883317880332,1.4567426729294628,584.6044002000708,584.3937476000283,[-2.3703119999263436],,,,,,,,quvsxs,001,fr,0,2022-05-17_13h07.04.793,Continuous,2022.1.1,None,
16,0,16,0,10,0,10,0,,,,,,,,1.1795214154118803,frequency,394.0,7.359110868474724,0.00018225248191065072,0,81,[],0.015169333666563034,None,['space'],585.8936803999823,585.8936803999823,0.20571263367310166,1.385234049084982,586.1057080999017,585.8936803999823,[-1.0860846999567002],,,,,,,,quvsxs,001,fr,0,2022-05-17_13h07.04.793,Continuous,2022.1.1,None,
16,0,16,0,11,0,11,0,,,,,,,,2.7667900624630644,frequency,442.0,7.234516205657095,0.00017113831362631187,0,82,[],0.015864633256569505,None,['space'],587.3197119999677,587.3197119999677,0.2370865331031382,3.0038765955662026,587.5507719998714,587.3197119999677,[-0.968161600176245],,,,,,,,quvsxs,001,fr,0,2022-05-17_13h07.04.793,Continuous,2022.1.1,None,
16,0,16,0,12,0,12,0,,,,,,,,2.625965986875809,frequency,496.0,5.2491529054823305,0.0001311198046241776,0,83,[],0.01539133326150477,None,['space'],590.3431055000983,590.3431055000983,0.23188723344355822,2.857853220319367,590.5743867000565,590.3431055000983,[-2.6320133998524398],,,,,,,,quvsxs,001,fr,0,2022-05-17_13h07.04.793,Continuous,2022.1.1,None,
16,0,16,0,13,0,13,0,,,,,,,,2.7338591330175,frequency,557.0,5.335059273360492,0.000115610921370761,0,84,[],0.015011133393272758,None,None,593.2263917000964,593.2263917000964,0.23522313334979117,2.969082266367291,593.4548520999961,593.2263917000964,,,,,,,,,quvsxs,001,fr,0,2022-05-17_13h07.04.793,Continuous,2022.1.1,None,
17,0,17,0,0,0,0,0,,,,,,603.674176499946,None,1.30139115110015,frequency,315.0,-1.75792900691971,8.055148551233924e-05,0,85,[],0.012924766633659601,None,None,604.6893321999814,None,0.21509446646086872,1.5164856175610186,604.9041174000595,None,,596.2142699998803,None,0.5833333333333334,,,,,quvsxs,001,fr,0,2022-05-17_13h07.04.793,Continuous,2022.1.1,None,
17,0,17,0,1,0,1,0,,,,,,,,2.793807214108064,frequency,472.0,1.5927121748202877,8.754202770761593e-05,0,86,['frequency'],0.013792233308777213,None,None,606.2414961999748,606.2414961999748,0.20525563322007656,2.9990628473281404,606.451278100023,606.2414961999748,,,,,"{'estimation': [[125.0, 8.356231103933801], [133.9716828170366, 8.183497924470373], [138.75856858719715, 8.0], [143.5872943746293, 7.826550669386643], [153.89305166811442, 7.370993042321578], [163.23838488672843, 7.000000000000001], [164.9384888466115, 6.934780939378837], [176.77669529663666, 6.667028194071239], [189.46457081379947, 6.69336020864289], [200.16265256867615, 7.0], [203.0630990890585, 7.081168033226203], [217.6376408240306, 7.798184682778443], [221.02329306067955, 8.0], [233.25824788420147, 8.713861359912551], [238.5040662893057, 9.0], [249.99999999999937, 9.614557471746043], [260.5156549608718, 10.0], [267.94336563407256, 10.266860418934456], [287.1745887492579, 10.486610303931634], [307.78610333622805, 10.202630232298345], [313.7027942428848, 10.0], [329.87697769322244, 9.477084091999487], [340.9670860567833, 9.0], [353.55339059327247, 8.483860876755838], [365.12016343051823, 8.0], [378.929141627598, 7.445920422561551], [392.2726660465242, 7.0], [406.12619817811606, 6.554624360841694], [431.0054608243073, 6.0], [435.2752816480601, 5.907912301665147], [466.5164957684015, 5.481807563122361], [499.9999999999975, 5.154006400973538], [513.741411023147, 5.0], [535.8867312681438, 4.75865986477434], [574.3491774985143, 4.171712434769234], [582.7598467164023, 4.0], [615.5722066724546, 3.3454442794777592], [630.6997906642627, 3.0], [659.7539553864432, 2.350885861125745], [676.1192916270187, 2.0], [707.1067811865431, 1.3499307211284206], [729.0727401393943, 1.0], [757.8582832551941, 0.5508066177486349], [812.2523963562301, 0.15305453034826688], [870.5505632961181, 0.2857835369861438], [933.0329915368008, 0.9837930242752508], [933.9254921530604, 1.0], [989.8565419636526, 2.0], [999.9999999999926, 2.1773172213927143], [1038.5489127799808, 3.0], [1071.773462536285, 3.696344611307511], [1086.161825967902, 4.0], [1133.5370706276944, 5.0], [1148.698354997026, 5.3133772835576325], [1187.2896270729614, 6.0], [1231.1444133449063, 6.765442565279396], [1250.5047408409937, 7.0], [1319.5079107728832, 7.81257891827398], [1357.6809861927259, 8.0], [1414.2135623730828, 8.267392657239848], [1515.7165665103846, 8.027289389875678], [1518.7637918279117, 8.0], [1624.5047927124563, 7.113593200909957], [1633.1861383536077, 7.0], [1712.2504477797313, 6.0], [1741.1011265922318, 5.65465417158289], [1786.1711778682754, 5.0], [1857.27798289002, 4.0], [1866.065983073597, 3.8818484652612186], [1930.3968861462606, 3.0], [1999.9999999999802, 2.083352940884124], [2007.5101124751557, 2.0], [2099.228430255698, 1.0], [2143.5469250725646, 0.5383808716929637], [2219.453414997887, 0.0], [2297.396709994046, -0.5329314726433495], [2452.3973512624657, -1.0], [2462.2888266898062, -1.0291994655956007], [2583.3690797231343, -1.0], [2639.01582154576, -0.9869632024860718], [2828.427124746159, -0.5694707970668423], [3031.4331330207615, -0.019109537392082553], [3040.836797047753, 0.0], [3249.0095854249043, 0.4032243229186415], [3482.2022531844555, 0.4896480769158432], [3732.1319661471844, 0.13859382955896948], [3779.006035477382, 0.0], [3999.9999999999504, -0.6292908078034057], [4099.895774529487, -1.0], [4287.093850145118, -1.6771361221720849], [4373.9427997474995, -2.0], [4594.793419988081, -2.8029376990845], [4658.75296513461, -3.0], [4924.577653379601, -3.7977539818613453], [5023.824699333765, -4.0], [5278.031643091506, -4.502516072815269], [5656.854249492303, -4.840612937628808], [6062.866266041508, -4.834891062089854], [6498.019170849792, -4.574923576073697], [6964.404506368894, -4.1801863558987575], [7174.295285186211, -4.0], [7464.2639322943505, -3.7555727613064986], [7999.999999999872, -3.368840668931716]], 'plus_line': [[125.0, 3.575851529020208], [133.9716828170366, 3.7240504513295347], [143.5872943746293, 3.477865665154106], [153.89305166811442, 3.051842880489499], [155.20221121312252, 3.0], [164.93848884661162, 2.6051812612720684], [176.77669529663666, 2.3435723985727055], [189.46457081379947, 2.3765916229483075], [203.0630990890585, 2.765670029575346], [207.71010688865522, 3.0], [217.6376408240306, 3.4654150136210835], [226.89834298778442, 4.0], [233.25824788420132, 4.3506122231931945], [245.6281171654826, 5.0], [249.99999999999937, 5.219464761912377], [267.94336563407256, 5.856005296786444], [278.91327888018355, 6.0], [287.1745887492579, 6.096657356666773], [295.4479391455738, 6.0], [307.78610333622805, 5.850831046696317], [329.87697769322244, 5.166081795814976], [333.79380776807693, 5.0], [353.55339059327247, 4.184352530856446], [357.90217858741784, 4.0], [378.929141627598, 3.1312777156292286], [382.7767332524525, 3.0], [406.12619817811606, 2.2134692601655166], [415.6158768805455, 2.0], [435.2752816480601, 1.5527248007714785], [466.5164957684015, 1.143745936421515], [481.66837310240356, 1.0], [499.9999999999975, 0.8182126530392869], [535.8867312681438, 0.40399742250726667], [560.8090588473573, 0.0], [574.3491774985143, -0.22382845378895805], [610.7871765902789, -1.0], [615.5722066724546, -1.1012730614412622], [652.9381299946548, -2.0], [659.7539553864432, -2.15932222080882], [696.8786299151913, -3.0], [707.1067811865431, -3.225006716484355], [753.1752510060659, -4.0], [757.8582832551941, -4.0784976754383955], [812.2523963562301, -4.536501387708977], [870.5505632961192, -4.432222675529158], [908.67498907928, -4.0], [933.0329915368008, -3.7428139371061526], [975.3922557661109, -3.0], [999.9999999999926, -2.57806459237108], [1028.5908013159506, -2.0], [1071.7734625362862, -1.1116635617438457], [1077.4496061988953, -1.0], [1128.070330909084, 0.0], [1148.698354997026, 0.4101813945657954], [1184.1537075121382, 1.0], [1231.1444133449063, 1.7901563793545088], [1248.6921427254379, 2.0], [1319.5079107728832, 2.8202184166800017], [1351.095160569209, 3.0], [1414.2135623730828, 3.3277256420968246], [1515.7165665103846, 3.197506632097528], [1541.390304924762, 3.0], [1624.5047927124563, 2.3831429787542113], [1655.1491139866328, 2.0], [1740.9957444760896, 1.0], [1741.1011265922298, 0.9988168250161276], [1808.4600668861358, 0.0], [1866.065983073597, -0.7662611962549944], [1882.5825744366848, -1.0], [1954.1870863370434, -2.0], [1999.9999999999802, -2.581593056465909], [2036.9321734639689, -3.0], [2130.1310110841914, -4.0], [2143.5469250725646, -4.137660975393658], [2263.5005060698727, -5.0], [2297.396709994046, -5.2353164289313145], [2462.2888266898062, -5.769251604297079], [2639.01582154576, -5.781422955557024], [2828.427124746159, -5.415229099120394], [2978.691148756744, -5.0], [3031.4331330207615, -4.865712654827087], [3249.0095854249043, -4.410073022607639], [3482.202253184451, -4.254410305102226], [3732.1319661471844, -4.5638301050539685], [3881.8544440568694, -5.0], [3999.9999999999554, -5.342965777481799], [4167.505239614326, -6.0], [4287.093850145118, -6.455043044920837], [4424.0632295483765, -7.0], [4594.793419988081, -7.654173390076529], [4702.1310004246725, -8.0], [4924.577653379601, -8.697182499613774], [5072.850998421757, -9.0], [5278.0316430915, -9.418012065964444], [5656.854249492303, -9.747681626498894], [6062.866266041501, -9.72967849400472], [6498.019170849792, -9.45532105187868], [6964.404506368894, -9.046110263535045], [7029.423866324639, -9.0], [7464.2639322943505, -8.718683419091025], [7999.999999999892, -8.645424589648997]], 'minus_line': [[125.0, 13.27732458596326], [129.54148317737776, 13.0], [133.9716828170366, 12.76925991922911], [143.5872943746293, 12.289661476475029], [149.3194142237369, 12.0], [153.89305166811442, 11.791515706415682], [164.93848884661162, 11.346759027420623], [176.77669529663666, 11.058369633638705], [189.46457081379947, 11.090045921208816], [203.0630990890585, 11.518190379675133], [212.05467291933385, 12.0], [217.6376408240306, 12.303052247548111], [228.35746994872156, 13.0], [233.25824788420132, 13.31605500631098], [244.70185116855714, 14.0], [249.99999999999937, 14.314454580277914], [267.60242252932306, 15.0], [267.94336563407256, 15.013561894351328], [287.1745887492579, 15.23688487884946], [300.0509902693509, 15.0], [307.78610333622805, 14.87466370384119], [329.87697769322244, 14.037060727789278], [330.6308899312861, 14.0], [352.1697527345596, 13.0], [353.55339059327247, 12.939518454198845], [374.7856399224365, 12.0], [378.929141627598, 11.82590157467872], [402.3496315472912, 11.0], [406.12619817811606, 10.874747303622195], [435.2752816480601, 10.18572714673493], [447.11652603897056, 10.0], [466.5164957684015, 9.727158519641007], [499.9999999999975, 9.395391538376849], [535.8867312681438, 9.015931740690863], [536.9676162980534, 9.0], [574.3491774985143, 8.492698267091484], [600.238664480029, 8.0], [615.5722066724546, 7.721156887128074], [649.1612981259827, 7.0], [659.7539553864432, 6.778912080838568], [698.4574524301681, 6.0], [707.1067811865431, 5.830650676757813], [757.8582832551941, 5.093795571874544], [772.627691584828, 5.0], [812.2523963562301, 4.7704067796608465], [870.5505632961181, 4.972191561171353], [872.760562405281, 5.0], [933.0329915368008, 5.765257095166085], [944.8847205808856, 6.0], [996.4428068777565, 7.0], [999.9999999999939, 7.067878614229517], [1038.5379890194642, 8.0], [1071.773462536285, 8.749732444508965], [1082.2652444207079, 9.0], [1124.2565628150546, 10.0], [1148.698354997026, 10.545694559292443], [1171.5061085945788, 11.0], [1223.81496564709, 12.0], [1231.1444133449063, 12.136237912862848], [1299.6354265933066, 13.0], [1319.5079107728832, 13.24244953189218], [1414.2135623730828, 13.642568523572653], [1515.7165665103846, 13.26169536694216], [1540.5639963686158, 13.0], [1624.5047927124563, 12.169859388613585], [1636.4603883028071, 12.0], [1708.379887267793, 11.0], [1741.1011265922298, 10.558185779374703], [1778.1788595494586, 10.0], [1843.222167412665, 9.0], [1866.065983073597, 8.661393577267525], [1913.4384396400312, 8.0], [1982.9429647622296, 7.0], [1999.9999999999802, 6.76507127782828], [2068.238918354409, 6.0], [2143.5469250725646, 5.148501674068785], [2163.421609844721, 5.0], [2297.396709994046, 4.034030538929031], [2308.219539299647, 4.0], [2462.2888266898062, 3.5599036105483304], [2639.01582154576, 3.6584446499030294], [2773.7500855806193, 4.0], [2828.427124746159, 4.144124159053626], [3031.4331330207615, 4.736324649471812], [3175.4499333258013, 5.0], [3249.0095854249043, 5.138499258539408], [3482.2022531844555, 5.165173069952249], [3575.8218919863, 5.0], [3732.1319661471844, 4.753718770936922], [3985.2773104920707, 4.0], [3999.9999999999504, 3.9587075243141836], [4268.745577425728, 3.0], [4287.093850145124, 2.9365148691652516], [4553.124908500722, 2.0], [4594.793419988076, 1.8564050061752801], [4887.353768513035, 1.0], [4924.577653379601, 0.894392980835404], [5278.031643091506, 0.21665608825220306], [5522.318970748259, 0.0], [5656.854249492303, -0.1086042542236828], [6062.866266041508, -0.08164001050772136], [6192.20171529326, 0.0], [6498.019170849792, 0.20158047337897522], [6964.404506368894, 0.6207337827942216], [7335.9404273710015, 1.0], [7464.2639322943505, 1.1361033159671114], [7999.999999999882, 1.8312702799730753]]}",,,,quvsxs,001,fr,0,2022-05-17_13h07.04.793,Continuous,2022.1.1,None,
17,0,17,0,2,0,2,0,,,,,,,,2.9836930568224274,frequency,707.0,-0.44838385164971384,4.217782571813227e-05,0,87,['frequency'],0.014600333524867892,None,None,609.2805155999959,609.2805155999959,0.20451903366483748,3.188212090487265,609.4917311999016,609.2805155999959,,,,,,,,,quvsxs,001,fr,0,2022-05-17_13h07.04.793,Continuous,2022.1.1,None,
17,0,17,0,3,0,3,0,,,,,,,,1.8570726982662433,frequency,1059.0,-2.3148324835585115,3.5636936187227115e-05,0,88,['frequency'],0.014918533619493246,None,None,612.5132808999624,612.5132808999624,0.23680153349414468,2.0938742317603882,612.743885200005,612.5132808999624,,,,,,,,,quvsxs,001,fr,0,2022-05-17_13h07.04.793,Continuous,2022.1.1,None,
17,0,17,0,4,0,4,0,,,,,,,,1.4389542407891676,frequency,1587.0,-1.7983069575435762,4.52447068869322e-05,0,89,['frequency'],0.0013403664343059063,0.19841476646251976,None,614.6298598998692,614.6298598998692,0.19841476646251976,1.6373690072516873,614.8347805000376,614.6298598998692,,,,,,,,,quvsxs,001,fr,0,2022-05-17_13h07.04.793,Continuous,2022.1.1,None,
17,0,17,0,5,0,5,0,,,,,,,,2.2530149853080705,frequency,2378.0,-3.742026294725079,5.407233111760212e-05,0,90,['frequency'],0.013015333330258727,None,None,616.3103698000778,616.3103698000778,0.23319693328812718,2.4862119185961977,616.5380061999895,616.3103698000778,,,,,,,,,quvsxs,001,fr,0,2022-05-17_13h07.04.793,Continuous,2022.1.1,None,
17,0,17,0,6,0,6,0,,,,,,,,2.57813921634464,frequency,3563.0,-0.9696433842030558,6.821285268717357e-05,0,91,['frequency'],0.013892933493480086,None,None,618.820414799964,618.820414799964,0.24201423348858953,2.8201534498332297,619.0553371000569,618.820414799964,,,,,,,,,quvsxs,001,fr,0,2022-05-17_13h07.04.793,Continuous,2022.1.1,None,
17,0,17,0,7,0,7,0,,,,,,,,1.942715826803172,frequency,5339.0,-4.382219237628837,8.467912651044586e-05,0,92,['frequency'],0.013762133428826928,None,['space'],621.6655603998806,621.6655603998806,0.23352283355779946,2.1762386603609714,621.8933908999898,621.6655603998806,[-2.3783301999792457],,,,,,,,quvsxs,001,fr,0,2022-05-17_13h07.04.793,Continuous,2022.1.1,None,
17,0,17,0,8,0,8,0,,,,,,,,2.244210535232173,frequency,8000.0,-4.0,0.00011454338263838867,0,93,['frequency'],0.013967933366075158,None,['space'],623.8662604000419,623.8662604000419,0.23281463328748941,2.4770251685196625,624.090621399926,623.8662604000419,[-1.7934377000201494],,,,,,,,quvsxs,001,fr,0,2022-05-17_13h07.04.793,Continuous,2022.1.1,None,
17,0,17,0,9,0,9,0,,,,,,,,2.0360194971802024,frequency,,,,1,93,['frequency'],0.014279133174568415,None,['space'],626.3676624000072,626.3676624000072,0.20696553331799805,2.2429850304982004,626.5818755000364,626.3676624000072,[-0.7920442000031471],,,,,,,,quvsxs,001,fr,0,2022-05-17_13h07.04.793,Continuous,2022.1.1,None,
18,0,18,0,0,0,0,0,,,,,"[0.16666666666666666, 0.5833333333333334, 0.5833333333333334, 0.5833333333333334, 0.3333333333333333, 0.3333333333333333, 0.3333333333333333, 0.5833333333333334, 0.5833333333333334, 0.3333333333333333, 0.5833333333333334, 0.3333333333333333, 0.16666666666666666, 0.3333333333333333, 0.3333333333333333]",631.8887803000398,None,2.699725189420068,time,280.0,4.225574127870113,0.00022072930516517828,0,65,['frequency'],0.012848166516050696,None,None,632.9319708000403,None,0.21676696673966944,2.9164921561597374,633.1395552000031,None,,628.6507800999098,None,,,,,,quvsxs,001,fr,0,2022-05-17_13h07.04.793,Continuous,2022.1.1,None,
18,0,18,0,1,0,1,0,,,,,,,,2.699725189420068,time,,,,1,65,['frequency'],0.014275433495640755,None,None,635.8756717999931,635.8756717999931,0.2346062334254384,2.9343314228455064,636.1082279998809,635.8756717999931,,,,,,,,,quvsxs,001,fr,0,2022-05-17_13h07.04.793,Continuous,2022.1.1,None,
18,0,18,0,2,0,2,0,,,,,,,,2.699725189420068,time,353.0,4.89505329640122,0.00015593742689023354,0,66,['frequency'],0.015555833466351032,None,None,638.8318221000955,638.8318221000955,0.23093353351578116,2.930658722935849,639.0584630998783,638.8318221000955,,,,,,,,,quvsxs,001,fr,0,2022-05-17_13h07.04.793,Continuous,2022.1.1,None,
18,0,18,0,3,0,3,0,,,,,,,,2.699725189420068,time,445.0,5.8482286286644625,0.00014559191100510353,0,67,['frequency'],0.01279913354665041,None,['space'],641.7878288000356,641.7878288000356,0.20620963349938393,2.905934822919452,641.9990109999198,641.7878288000356,[-2.4606476998887956],,,,,,,,quvsxs,001,fr,0,2022-05-17_13h07.04.793,Continuous,2022.1.1,None,
18,0,18,0,4,0,4,0,,,,,,,,2.699725189420068,time,125.0,6.0,0.0014420157515633036,0,68,['frequency'],0.013927833177149296,None,['space'],644.737105499953,644.737105499953,0.22965683322399855,2.9293820226440666,644.9645859000739,644.737105499953,[-2.5295436000451446],,,,,,,,quvsxs,001,fr,0,2022-05-17_13h07.04.793,Continuous,2022.1.1,None,
18,0,18,0,5,0,5,0,,,,,,,,2.699725189420068,time,4238.0,2.26050156581785,0.0001301353428382886,0,69,['frequency'],0.014356433413922787,None,['space'],647.6876359998714,647.6876359998714,0.20473373332060874,2.9044589227406767,647.8994917999953,647.6876359998714,[-1.431946099968627],,,,,,,,quvsxs,001,fr,0,2022-05-17_13h07.04.793,Continuous,2022.1.1,None,
18,0,18,0,6,0,6,0,,,,,,,,2.699725189420068,time,1588.0,4.448257902577808,9.301538316625635e-05,0,70,['frequency'],0.013644533697515726,None,['space'],650.6364716000389,650.6364716000389,0.20419843355193734,2.9039236229720053,650.8492435999215,650.6364716000389,[-2.5407011001370847],,,,,,,,quvsxs,001,fr,0,2022-05-17_13h07.04.793,Continuous,2022.1.1,None,
18,0,18,0,7,0,7,0,,,,,,,,2.699725189420068,time,2997.0,5.348383836908022,0.00010182713204534138,0,71,['frequency'],0.00939543335698545,None,['space'],653.587495099986,653.587495099986,0.2249610333237797,2.9246862227438477,653.8164160999004,653.587495099986,[-2.5645592000801116],,,,,,,,quvsxs,001,fr,0,2022-05-17_13h07.04.793,Continuous,2022.1.1,None,
18,0,18,0,8,0,8,0,,,,,,,,2.699725189420068,time,3364.0,1.8647386880099626,9.020360004977329e-05,0,72,['frequency'],0.013075633440166712,None,['space'],656.5449550000485,656.5449550000485,0.2317650334443897,2.9314902228644577,656.7764822000172,656.5449550000485,[-2.6413589001167566],,,,,,,,quvsxs,001,fr,0,2022-05-17_13h07.04.793,Continuous,2022.1.1,None,
18,0,18,0,9,0,9,0,,,,,,,,2.699725189420068,time,1260.0,2.7822367630657534,7.474795069181135e-05,0,73,['frequency'],0.013924533501267433,None,['space'],659.5033098999411,659.5033098999411,0.23034923360683024,2.9300744230268982,659.7311007000972,659.5033098999411,[-2.5916836000978947],,,,,,,,quvsxs,001,fr,0,2022-05-17_13h07.04.793,Continuous,2022.1.1,None,
18,0,18,0,10,0,10,0,,,,,,,,2.699725189420068,time,561.0,5.18027952424577,0.00011243609819747346,0,74,['frequency'],0.013910133624449372,None,['space'],662.4570448999293,662.4570448999293,0.20657953363843262,2.9063047230585006,662.6662727000657,662.4570448999293,[-2.473619599826634],,,,,,,,quvsxs,001,fr,0,2022-05-17_13h07.04.793,Continuous,2022.1.1,None,
18,0,18,0,11,0,11,0,,,,,,,,2.699725189420068,time,5340.0,2.716597619733162,0.00019169156498204183,0,75,['frequency'],0.012715133605524898,None,None,665.40424240008,665.40424240008,0.23400943353772163,2.9337346229577896,665.6341269998811,665.40424240008,,,,,,,,,quvsxs,001,fr,0,2022-05-17_13h07.04.793,Continuous,2022.1.1,None,
18,0,18,0,12,0,12,0,,,,,,,,2.699725189420068,time,841.0,5.775720073931108,7.686875417834534e-05,0,76,['frequency'],0.01215993333607912,None,['space'],668.3647113000043,668.3647113000043,0.2317502333316952,2.931475422751763,668.5915866000578,668.3647113000043,[-2.6051471999380738],,,,,,,,quvsxs,001,fr,0,2022-05-17_13h07.04.793,Continuous,2022.1.1,None,
18,0,18,0,13,0,13,0,,,,,,,,2.699725189420068,time,187.0,5.879202616628961,0.0006154745756191731,0,77,['frequency'],0.016423733672127128,None,['space'],671.3236412000842,671.3236412000842,0.24125263351015747,2.9409778229302255,671.5441532998811,671.3236412000842,[-1.8284593999851495],,,,,,,,quvsxs,001,fr,0,2022-05-17_13h07.04.793,Continuous,2022.1.1,None,
19,0,19,0,0,0,0,0,,,,,"[0.16666666666666666, 0.16666666666666666, 0.5833333333333334, 0.5833333333333334, 0.16666666666666666, 0.3333333333333333, 0.5833333333333334, 0.5833333333333334, 0.3333333333333333, 0.5833333333333334, 0.5833333333333334, 0.16666666666666666, 0.5833333333333334, 0.3333333333333333, 0.16666666666666666]",680.8570938000921,None,1.0788690930507157,none,140.0,6.8012598576671515,0.0012891672174605425,0,82,['frequency'],0.01274036685936153,None,None,681.88458120008,None,0.21082386677153409,1.2896929598222497,682.0948578999378,None,,674.2818976000417,None,,,,,,quvsxs,001,fr,0,2022-05-17_13h07.04.793,Continuous,2022.1.1,None,
19,0,19,0,1,0,1,0,,,,,,,,2.1745134251386844,none,125.0,8.0,0.0018153902738505074,0,83,['frequency'],0.013273933436721563,None,['space'],683.2119336999021,683.2119336999021,0.23137633339501917,2.4058897585337036,683.4380302000791,683.2119336999021,[-0.5723935998976231],,,,,,,,quvsxs,001,fr,0,2022-05-17_13h07.04.793,Continuous,2022.1.1,None,
19,0,19,0,2,0,2,0,,,,,,,,1.1189875682201598,none,2830.0,6.476276111502585,0.0001378203476266859,0,84,['frequency'],0.01272203354164958,None,None,685.6424950999208,685.6424950999208,0.20308793359436095,1.3220755018145207,685.8553398000076,685.6424950999208,,,,,,,,,quvsxs,001,fr,0,2022-05-17_13h07.04.793,Continuous,2022.1.1,None,
19,0,19,0,3,0,3,0,,,,,,,,1.2014236594109002,none,5997.0,-3.0566849480405223,8.157370923570796e-05,0,85,['frequency'],0.013018433470278978,None,['space'],687.0104863999877,687.0104863999877,0.23335753357969224,1.4347811929905925,687.2402921998873,687.0104863999877,[-0.8993407001253217],,,,,,,,quvsxs,001,fr,0,2022-05-17_13h07.04.793,Continuous,2022.1.1,None,
