sweeps.thisRepN,sweeps.thisTrialN,sweeps.thisN,sweeps.thisIndex,trials.thisRepN,trials.thisTrialN,trials.thisN,trials.thisIndex,instructions.started,instructions.stopped,blank_text.started,blank_text.stopped,,text.started,text.stopped,Delay,Prediction,Frequency,Volume,Psychopy_level,isCatchTrial,len(y),finished_audiograms,probe.started,probe.stopped,feedback.keys,feedback.started,feedback.stopped,ISI.started,ISI.stopped,text_2.started,text_2.stopped,break_txt.started,break_txt.stopped,Intervals,feedback.rt,Audiogram_both,Audiogram_frequency,Audiogram_none,Audiogram_time,end_txt.started,end_txt.stopped,participant,session,language (english or french),Resume previous experiment,date,expName,psychopyVersion,frameRate,
0,0,0,0,0,0,0,0,19.51947270000005,None,75.12785970000004,None,0.3333333333333333,77.1391536000001,None,2.0834316028984547,frequency,1516.0,-4.153178651829245,3.07820303206752e-05,0,26,[],0.023893830000133676,None,None,78.15119060000006,None,0.24893272999997862,2.3323643328984334,78.37314079999987,None,,,,,,,,,,,cwzopc,001,english,0,2022-07-20_10h39.46.286,Continuous,2022.1.1,34.12413746977165,
0,0,0,0,1,0,1,0,,,,,,,,1.7336182087387213,frequency,1203.0,-2.942122424923342,3.7446534817247746e-05,0,27,[],0.024766329999920345,None,None,80.45571889999997,80.45571889999997,0.24287583000000268,1.976494038738724,80.67801869999994,80.45571889999997,,,,,,,,,,,cwzopc,001,english,0,2022-07-20_10h39.46.286,Continuous,2022.1.1,34.12413746977165,
0,0,0,0,2,0,2,0,,,,,,,,1.3778712441580412,frequency,955.0,2.0539389391036122,5.418403401114347e-05,0,28,[],0.01827572999968652,None,None,82.40149700000006,82.40149700000006,0.23124462999976458,1.6091158741578058,82.62704740000004,82.40149700000006,,,,,,,,,,,cwzopc,001,english,0,2022-07-20_10h39.46.286,Continuous,2022.1.1,34.12413746977165,
0,0,0,0,3,0,3,0,,,,,,,,1.4575719343368891,frequency,758.0,-2.9188686739525327,2.878206983902071e-05,0,29,[],0.024874429999954373,None,None,83.99734560000002,83.99734560000002,0.24678172999983872,1.7043536643367279,84.222217,83.99734560000002,,,,,,,,,,,cwzopc,001,english,0,2022-07-20_10h39.46.286,Continuous,2022.1.1,34.12413746977165,
0,0,0,0,4,0,4,0,,,,,,,,1.6525410282388555,frequency,602.0,-0.743612671451082,5.0976245203008825e-05,0,30,[],0.01708792999988873,None,None,85.67246320000004,85.67246320000004,0.23131403000002138,1.883855058238877,85.90032840000003,85.67246320000004,,,,,,,,,,,cwzopc,001,english,0,2022-07-20_10h39.46.286,Continuous,2022.1.1,34.12413746977165,
0,0,0,0,5,0,5,0,,,,,,,,2.957497258376976,frequency,478.0,-6.701362001770107,3.3549186965890646e-05,0,31,[],0.024137430000109816,None,None,87.54530240000008,87.54530240000008,0.2450607299999774,3.2025579883769533,87.7704768000001,87.54530240000008,,,,,,,,,,,cwzopc,001,english,0,2022-07-20_10h39.46.286,Continuous,2022.1.1,34.12413746977165,
0,0,0,0,6,0,6,0,,,,,,,,2.9525082804305356,frequency,379.0,-8.0,3.264724102951903e-05,0,32,[],0.024729929999693923,None,None,90.72063639999988,90.72063639999988,0.24534402999961458,3.19785231043015,90.9446524,90.72063639999988,,,,,,,,,,,cwzopc,001,english,0,2022-07-20_10h39.46.286,Continuous,2022.1.1,34.12413746977165,
0,0,0,0,7,0,7,0,,,,,,,,2.716664428572747,frequency,301.0,-0.7359272584418779,0.00010423632572952924,0,33,[],0.02475402999994003,None,None,93.89228559999992,93.89228559999992,0.25675862999992205,2.973423058572669,94.12857149999991,93.89228559999992,,,,,,,,,,,cwzopc,001,english,0,2022-07-20_10h39.46.286,Continuous,2022.1.1,34.12413746977165,
0,0,0,0,8,0,8,0,,,,,,,,2.998728957465244,frequency,239.0,1.1868524820495532,0.00021671157680668701,0,34,[],0.018102129999988392,None,None,96.8333642,96.8333642,0.2309388300000137,3.2296677874652575,97.06332610000004,96.8333642,,,,,,,,,,,cwzopc,001,english,0,2022-07-20_10h39.46.286,Continuous,2022.1.1,34.12413746977165,
0,0,0,0,9,0,9,0,,,,,,,,2.3932758183051748,frequency,190.0,-5.744943910615078,0.00015579777335947674,0,35,[],0.024494530000083614,None,None,100.04943159999993,100.04943159999993,0.24671443000011095,2.6399902483052857,100.27363280000009,100.04943159999993,,,,,,,,,,,cwzopc,001,english,0,2022-07-20_10h39.46.286,Continuous,2022.1.1,34.12413746977165,
0,0,0,0,10,0,10,0,,,,,,,,2.1636265324820494,frequency,151.0,-1.0617974280903806,0.0004347201262822917,0,36,[],0.02459712999984731,None,None,102.66379549999988,102.66379549999988,0.24312212999984695,2.4067486624818963,102.88772440000002,102.66379549999988,,,,,,,,,,,cwzopc,001,english,0,2022-07-20_10h39.46.286,Continuous,2022.1.1,34.12413746977165,
0,0,0,0,11,0,11,0,,,,,,,,1.8163822966844596,frequency,,,,1,36,[],0.022936329999993177,None,None,105.04054189999988,105.04054189999988,0.23968573000001925,2.056068026684479,105.2684961,105.04054189999988,,,,,,,,,,,cwzopc,001,english,0,2022-07-20_10h39.46.286,Continuous,2022.1.1,34.12413746977165,
1,0,1,0,0,0,0,0,,,,,,112.80463359999999,None,2.076202115644076,time,568.0,-2.162688129154638,4.7427588889248677e-05,0,26,[],0.020315630000141027,None,None,113.810518,None,0.23194773000000168,2.3081498456440777,114.03563919999988,None,107.0742092999999,None,"[0.5833333333333334, 0.5833333333333334, 0.16666666666666666, 0.5833333333333334, 0.16666666666666666, 0.3333333333333333, 0.5833333333333334, 0.5833333333333334, 0.3333333333333333, 0.5833333333333334, 0.3333333333333333, 0.16666666666666666, 0.16666666666666666, 0.3333333333333333, 0.5833333333333334]",,,,,,,,cwzopc,001,english,0,2022-07-20_10h39.46.286,Continuous,2022.1.1,34.12413746977165,
1,0,1,0,1,0,1,0,,,,,,,,2.076202115644076,time,301.0,2.4620075742836693,0.00015063151218349302,0,27,[],0.02144812999995338,None,None,116.10214130000008,116.10214130000008,0.23802073000001656,2.3142228456440925,116.32799419999992,116.10214130000008,,,,,,,,,,,cwzopc,001,english,0,2022-07-20_10h39.46.286,Continuous,2022.1.1,34.12413746977165,
1,0,1,0,2,0,2,0,,,,,,,,2.076202115644076,time,1136.0,-0.5048849126175323,4.693206647455269e-05,0,28,[],0.024235830000179703,None,None,118.39682700000003,118.39682700000003,0.24577023000006193,2.321972345644138,118.62153190000004,118.39682700000003,,,,,,,,,,,cwzopc,001,english,0,2022-07-20_10h39.46.286,Continuous,2022.1.1,34.12413746977165,
1,0,1,0,3,0,3,0,,,,,,,,2.076202115644076,time,1702.0,-2.785396891689392,4.4523398715346255e-05,0,29,[],0.024080129999902056,None,None,120.68983849999995,120.68983849999995,0.24277192999988984,2.318974045643966,120.9132087999999,120.68983849999995,,,,,,,,,,,cwzopc,001,english,0,2022-07-20_10h39.46.286,Continuous,2022.1.1,34.12413746977165,
1,0,1,0,4,0,4,0,,,,,,,,2.076202115644076,time,716.0,-1.5855032691012063,3.6344704132917e-05,0,30,[],0.015589030000001003,None,None,122.98234009999987,122.98234009999987,0.22388552999996136,2.3000876456440373,123.2040058,122.98234009999987,,,,,,,,,,,cwzopc,001,english,0,2022-07-20_10h39.46.286,Continuous,2022.1.1,34.12413746977165,
1,0,1,0,5,0,5,0,,,,,,,,2.076202115644076,time,902.0,-6.123458616806106,2.0390648982889035e-05,0,31,[],0.024033629999848927,None,None,125.27270870000007,125.27270870000007,0.24439293000000362,2.3205950456440796,125.49710090000008,125.27270870000007,,,,,,,,,,,cwzopc,001,english,0,2022-07-20_10h39.46.286,Continuous,2022.1.1,34.12413746977165,
1,0,1,0,6,0,6,0,,,,,,,,2.076202115644076,time,134.0,-0.5139382901157761,0.0006056756547572568,0,32,[],0.023470429999861153,None,None,127.56406820000007,127.56406820000007,0.22053922999998576,2.2967413456440617,127.77283859999989,127.56406820000007,,,,,,,,,,,cwzopc,001,english,0,2022-07-20_10h39.46.286,Continuous,2022.1.1,34.12413746977165,
1,0,1,0,7,0,7,0,,,,,,,,2.076202115644076,time,379.0,-8.0,3.264724102951903e-05,0,33,[],0.02146352999989176,None,None,129.84998010000004,129.84998010000004,0.2355034299998806,2.3117055456439566,130.07503739999993,129.84998010000004,,,,,,,,,,,cwzopc,001,english,0,2022-07-20_10h39.46.286,Continuous,2022.1.1,34.12413746977165,
1,0,1,0,8,0,8,0,,,,,,,,2.076202115644076,time,804.0,-1.6331974790562596,3.1885635241311305e-05,0,34,[],0.022889630000008765,None,None,132.14645229999996,132.14645229999996,0.24224733000005472,2.3184494456441307,132.37065529999995,132.14645229999996,,,,,,,,,,,cwzopc,001,english,0,2022-07-20_10h39.46.286,Continuous,2022.1.1,34.12413746977165,
1,0,1,0,9,0,9,0,,,,,,,,2.076202115644076,time,,,,1,34,[],0.024151229999915813,None,None,134.4380670999999,134.4380670999999,0.2460653299999649,2.322267445644041,134.66480810000007,134.4380670999999,,,,,,,,,,,cwzopc,001,english,0,2022-07-20_10h39.46.286,Continuous,2022.1.1,34.12413746977165,
1,0,1,0,10,0,10,0,,,,,,,,2.076202115644076,time,201.0,-2.288431794085212,0.00020245619146490957,0,35,[],0.025241129999812983,None,None,136.73201719999997,136.73201719999997,0.24307762999978877,2.3192797456438647,136.95566940000003,136.73201719999997,,,,,,,,,,,cwzopc,001,english,0,2022-07-20_10h39.46.286,Continuous,2022.1.1,34.12413746977165,
2,0,2,0,0,0,0,0,,,,,0.3333333333333333,141.54324100000008,None,1.2934963316098471,both,1516.0,-1.9699089878068055,3.957862887416298e-05,0,26,[],0.025659529999984443,None,None,142.57442859999992,None,0.21538203000000067,1.5088783616098478,142.77221110000005,None,139.02583600000003,None,,,,,,,,,cwzopc,001,english,0,2022-07-20_10h39.46.286,Continuous,2022.1.1,34.12413746977165,
2,0,2,0,1,0,1,0,,,,,,,,1.2934963316098471,both,1203.0,-5.921837910448243,2.6572098973396016e-05,0,27,[],0.01241832999971848,0.19628172999978233,None,144.07463119999989,144.07463119999989,0.19628172999978233,1.4897780616096294,144.27257480000003,144.07463119999989,,,,,,,,,,,cwzopc,001,english,0,2022-07-20_10h39.46.286,Continuous,2022.1.1,34.12413746977165,
2,0,2,0,2,0,2,0,,,,,,,,1.2934963316098471,both,,,,1,27,[],0.018302930000118067,None,None,145.56886639999993,145.56886639999993,0.2326204300002246,1.5261167616100717,145.79492989999994,145.56886639999993,,,,,,,,,,,cwzopc,001,english,0,2022-07-20_10h39.46.286,Continuous,2022.1.1,34.12413746977165,
2,0,2,0,3,0,3,0,,,,,,,,1.2934963316098471,both,758.0,-1.3385338542297935,3.452540355900306e-05,0,28,[],0.024667029999818624,None,None,147.08051810000006,147.08051810000006,0.24370092999970439,1.5371972616095515,147.30426680000005,147.08051810000006,,,,,,,,,,,cwzopc,001,english,0,2022-07-20_10h39.46.286,Continuous,2022.1.1,34.12413746977165,
2,0,2,0,4,0,4,0,,,,,,,,1.2934963316098471,both,602.0,-7.764072443961553,2.2716679694679406e-05,0,29,[],0.0199994299998707,None,None,148.5886355,148.5886355,0.2362779299999147,1.5297742616097618,148.81396870000003,148.5886355,,,,,,,,,,,cwzopc,001,english,0,2022-07-20_10h39.46.286,Continuous,2022.1.1,34.12413746977165,
2,0,2,0,5,0,5,0,,,,,,,,1.2934963316098471,both,478.0,-3.814458557905829,4.6776440654585745e-05,0,30,[],0.023511029999781385,None,None,150.10108769999988,150.10108769999988,0.24649372999988373,1.5399900616097308,150.324157,150.10108769999988,,,,,,,,,,,cwzopc,001,english,0,2022-07-20_10h39.46.286,Continuous,2022.1.1,34.12413746977165,
2,0,2,0,6,0,6,0,,,,,,,,1.2934963316098471,both,379.0,-8.0,3.264724102951903e-05,0,31,[],0.0236161299997093,None,None,151.61400920000005,151.61400920000005,0.24167452999972738,1.5351708616095745,151.83664479999993,151.61400920000005,,,,,,,,,,,cwzopc,001,english,0,2022-07-20_10h39.46.286,Continuous,2022.1.1,34.12413746977165,
2,0,2,0,7,0,7,0,,,,,,,,1.2934963316098471,both,301.0,1.7662944822512288,0.00013903693371110503,0,32,[],0.023530529999788996,None,None,153.1237203999999,153.1237203999999,0.24788062999982685,1.541376961609674,153.35028740000007,153.1237203999999,,,,,,,,,,,cwzopc,001,english,0,2022-07-20_10h39.46.286,Continuous,2022.1.1,34.12413746977165,
2,0,2,0,8,0,8,0,,,,,,,,1.2934963316098471,both,239.0,-4.950317688388525,0.00010691129831282455,0,33,[],0.023398429999815562,None,None,154.6382845999999,154.6382845999999,0.24192722999987382,1.535423561609721,154.86144369999988,154.6382845999999,,,,,,,,,,,cwzopc,001,english,0,2022-07-20_10h39.46.286,Continuous,2022.1.1,34.12413746977165,
2,0,2,0,9,0,9,0,,,,,,,,1.2934963316098471,both,190.0,0.5863801059714985,0.0003229441689230172,0,34,[],0.021129829999836147,None,None,156.14483300000006,156.14483300000006,0.23816923000003953,1.5316655616098866,156.3716855,156.14483300000006,,,,,,,,,,,cwzopc,001,english,0,2022-07-20_10h39.46.286,Continuous,2022.1.1,34.12413746977165,
2,0,2,0,10,0,10,0,,,,,,,,1.2934963316098471,both,151.0,-1.9765753407993485,0.00039126486584750117,0,35,[],0.02304193000009036,None,None,157.6584703000001,157.6584703000001,0.21148092999987966,1.5049772616097268,157.86048860000005,157.6584703000001,,,,,,,,,,,cwzopc,001,english,0,2022-07-20_10h39.46.286,Continuous,2022.1.1,34.12413746977165,
3,0,3,0,0,0,0,0,,,,,,161.15651189999994,None,1.5863024335814002,none,637.0,-6.099559457433123,2.5046674183219265e-05,0,26,[],0.025732130000051257,None,None,162.16470189999995,None,0.2466524300000401,1.8329548635814403,162.3864705000001,None,159.15859640000008,None,"[0.5833333333333334, 0.16666666666666666, 0.3333333333333333, 0.16666666666666666, 0.5833333333333334, 0.3333333333333333, 0.16666666666666666, 0.5833333333333334, 0.5833333333333334, 0.16666666666666666, 0.5833333333333334, 0.3333333333333333, 0.3333333333333333, 0.16666666666666666, 0.5833333333333334]",,,,,,,,cwzopc,001,english,0,2022-07-20_10h39.46.286,Continuous,2022.1.1,34.12413746977165,
3,0,3,0,1,0,1,0,,,,,,,,2.5501250561015025,none,253.0,-4.190142027189055,0.00010142437436085728,0,27,[],0.02282982999986416,None,None,163.9698754000001,163.9698754000001,0.2214863299998342,2.7716113861013367,164.1848705,163.9698754000001,,,,,,,,,,,cwzopc,001,english,0,2022-07-20_10h39.46.286,Continuous,2022.1.1,34.12413746977165,
3,0,3,0,2,0,2,0,,,,,,,,1.3381393430664286,none,169.0,-6.281723256655347,0.0001835693394156767,0,28,[],0.02331992999961585,None,None,166.73651790000008,166.73651790000008,0.24526052999954118,1.5833998730659697,166.9624139,166.73651790000008,,,,,,,,,,,cwzopc,001,english,0,2022-07-20_10h39.46.286,Continuous,2022.1.1,34.12413746977165,
3,0,3,0,3,0,3,0,,,,,,,,1.5527338610512487,none,151.0,-7.405657746662479,0.0002094193133612698,0,29,[],0.02120252999998229,None,None,168.29097860000002,168.29097860000002,0.23674732999984371,1.7894811910510924,168.51514120000002,168.29097860000002,,,,,,,,,,,cwzopc,001,english,0,2022-07-20_10h39.46.286,Continuous,2022.1.1,34.12413746977165,
3,0,3,0,4,0,4,0,,,,,,,,2.928282830332905,none,1702.0,-3.741907468613161,3.988070069492894e-05,0,30,[],0.022394829999711874,None,None,170.05915230000005,170.05915230000005,0.24219832999961,3.170481160332515,170.28564140000003,170.05915230000005,,,,,,,,,,,cwzopc,001,english,0,2022-07-20_10h39.46.286,Continuous,2022.1.1,34.12413746977165,
3,0,3,0,5,0,5,0,,,,,,,,2.583768169407308,none,,,,1,30,[],0.02327832999981183,None,None,173.2076634,173.2076634,0.241791929999863,2.825560099407171,173.43167790000007,173.2076634,,,,,,,,,,,cwzopc,001,english,0,2022-07-20_10h39.46.286,Continuous,2022.1.1,34.12413746977165,
3,0,3,0,6,0,6,0,,,,,,,,2.1285013208184305,none,425.0,-3.0439463247820697,5.302305211359311e-05,0,31,[],0.02403133000007074,None,None,176.00903889999995,176.00903889999995,0.24286503000007542,2.371366350818506,176.23329749999994,176.00903889999995,,,,,,,,,,,cwzopc,001,english,0,2022-07-20_10h39.46.286,Continuous,2022.1.1,34.12413746977165,
3,0,3,0,7,0,7,0,,,,,,,,2.9903379423556435,none,1136.0,-2.899770620299112,3.562258174580205e-05,0,32,[],0.021762829999715905,None,None,178.3508781999999,178.3508781999999,0.2389737299997705,3.229311672355414,178.5789428999999,178.3508781999999,,,,,,,,,,,cwzopc,001,english,0,2022-07-20_10h39.46.286,Continuous,2022.1.1,34.12413746977165,
3,0,3,0,8,0,8,0,,,,,,,,1.3956718555274958,none,1012.0,-3.227697712330815,3.072595662113029e-05,0,33,[],0.022748829999727604,None,None,181.56484320000004,181.56484320000004,0.2414249299997664,1.6370967855272622,181.7870043999999,181.56484320000004,,,,,,,,,,,cwzopc,001,english,0,2022-07-20_10h39.46.286,Continuous,2022.1.1,34.12413746977165,
3,0,3,0,9,0,9,0,,,,,,,,1.4622192542946135,none,803.0,0.08389096922677342,3.882653338927519e-05,0,34,[],0.02038272999993751,None,None,183.17333159999998,183.17333159999998,0.23353962999999567,1.6957588842946092,183.39599249999992,183.17333159999998,,,,,,,,,,,cwzopc,001,english,0,2022-07-20_10h39.46.286,Continuous,2022.1.1,34.12413746977165,
3,0,3,0,10,0,10,0,,,,,,,,2.3470277352392577,none,379.0,-8.0,3.264724102951903e-05,0,35,[],0.022812129999692843,None,None,184.85785639999995,184.85785639999995,0.24491862999957448,2.591946365238832,185.08398399999987,184.85785639999995,,,,,,,,,,,cwzopc,001,english,0,2022-07-20_10h39.46.286,Continuous,2022.1.1,34.12413746977165,
4,0,4,0,0,0,0,0,,,,,0.5833333333333334,211.71641139999997,None,2.8945748499679578,frequency,7379.0,2.960089788555945,0.0002287874416666271,0,37,[],0.024123930000087057,None,None,212.74046139999996,None,0.24493912999992062,3.1395139799678784,212.96519319999993,None,187.42432080000003,None,,,,,,,,,cwzopc,001,english,0,2022-07-20_10h39.46.286,Continuous,2022.1.1,34.12413746977165,
4,0,4,0,1,0,1,0,,,,,,,,1.8252952898104686,frequency,4925.0,3.0,0.00020847022442907278,0,38,[],0.0225221299997429,None,['space'],215.85562929999992,215.85562929999992,0.21195432999979857,2.037249619810267,216.06024260000004,215.85562929999992,,,,[-2.6097465000000284],,,,,,,cwzopc,001,english,0,2022-07-20_10h39.46.286,Continuous,2022.1.1,34.12413746977165,
4,0,4,0,2,0,2,0,,,,,,,,1.3768357087271006,frequency,3287.0,-0.6117013485988254,6.65671346588593e-05,0,39,[],0.021758930000032706,None,['space'],217.8908543,217.8908543,0.24455383000008624,1.6213895387271868,218.1178387,217.8908543,,,,[-1.661974999999984],,,,,,,cwzopc,001,english,0,2022-07-20_10h39.46.286,Continuous,2022.1.1,34.12413746977165,
4,0,4,0,3,0,3,0,,,,,,,,1.1040463615213523,frequency,2194.0,2.5930660509144863,0.00010663430674219903,0,40,[],0.0225307299999713,None,['space'],219.4872127000001,219.4872127000001,0.2403022299999975,1.3443485915213498,219.7086311999999,219.4872127000001,,,,[-1.2180829999999787],,,,,,,cwzopc,001,english,0,2022-07-20_10h39.46.286,Continuous,2022.1.1,34.12413746977165,
4,0,4,0,4,0,4,0,,,,,,,,1.5811607390246813,frequency,1464.0,6.944436939543649,0.00010943452087292762,0,41,[],0.022266329999865775,None,None,220.8084667999999,220.8084667999999,0.24778392999996868,1.82894466902465,221.0386054999999,220.8084667999999,,,,,,,,,,,cwzopc,001,english,0,2022-07-20_10h39.46.286,Continuous,2022.1.1,34.12413746977165,
4,0,4,0,5,0,5,0,,,,,,,,1.8556665042504517,frequency,977.0,3.0,6.13023513265057e-05,0,42,[],0.022351429999844186,None,None,222.61385229999996,222.61385229999996,0.24342082999987724,2.0990873342503287,222.83860920000006,222.61385229999996,,,,,,,,,,,cwzopc,001,english,0,2022-07-20_10h39.46.286,Continuous,2022.1.1,34.12413746977165,
4,0,4,0,6,0,6,0,,,,,,,,1.5975561965619343,frequency,652.0,1.739983867452442,6.0155695782109705e-05,0,43,[],0.019124730000157797,None,None,224.6851276,224.6851276,0.2326367300001948,1.830192926562129,224.9193840999999,224.6851276,,,,,,,,,,,cwzopc,001,english,0,2022-07-20_10h39.46.286,Continuous,2022.1.1,34.12413746977165,
4,0,4,0,7,0,7,0,,,,,,,,1.056073687758163,frequency,435.0,1.7169755815291199,9.110723126194698e-05,0,44,[],0.016905029999861654,None,None,226.50401310000007,226.50401310000007,0.22909802999970452,1.2851717177578674,226.7357684000001,226.50401310000007,,,,,,,,,,,cwzopc,001,english,0,2022-07-20_10h39.46.286,Continuous,2022.1.1,34.12413746977165,
4,0,4,0,8,0,8,0,,,,,,,,2.333473299221988,frequency,,,,1,44,[],0.022460829999999987,None,None,227.78734609999992,227.78734609999992,0.24360282999987248,2.5770761292218607,228.0117502999999,227.78734609999992,,,,,,,,,,,cwzopc,001,english,0,2022-07-20_10h39.46.286,Continuous,2022.1.1,34.12413746977165,
4,0,4,0,9,0,9,0,,,,,,,,1.1727316473874023,frequency,194.0,1.0189377900028256,0.00032305285082771747,0,45,[],0.023565029999872422,None,None,230.33864760000006,230.33864760000006,0.24644782999985182,1.4191794773872541,230.56537950000006,230.33864760000006,,,,,,,,,,,cwzopc,001,english,0,2022-07-20_10h39.46.286,Continuous,2022.1.1,34.12413746977165,
5,0,5,0,0,0,0,0,,,,,0.5833333333333334,256.0701976999999,None,2.0024074377579435,both,4925.0,3.0,0.00020847022442907278,0,36,[],0.024864929999921515,None,None,257.0784957999999,None,0.24838122999994994,2.2507886677578934,257.3032954999999,None,231.73344199999997,None,,,,,,,,,cwzopc,001,english,0,2022-07-20_10h39.46.286,Continuous,2022.1.1,34.12413746977165,
5,0,5,0,1,0,1,0,,,,,,,,2.0024074377579435,both,3287.0,2.9320128623919515,0.00010010264984615967,0,37,[],0.02188652999984697,None,['space'],259.29970219999996,259.29970219999996,0.23880762999988292,2.2412150677578264,259.52211179999995,259.29970219999996,,,,[-1.6627779999998893],,,,,,,cwzopc,001,english,0,2022-07-20_10h39.46.286,Continuous,2022.1.1,34.12413746977165,
5,0,5,0,2,0,2,0,,,,,,,,2.0024074377579435,both,2194.0,2.542238558677951,0.00010601213360253797,0,38,[],0.02194533000033516,None,['space'],261.52194929999996,261.52194929999996,0.24203123000029336,2.244438667758237,261.7419935999999,261.52194929999996,,,,[-1.9249792999999045],,,,,,,cwzopc,001,english,0,2022-07-20_10h39.46.286,Continuous,2022.1.1,34.12413746977165,
5,0,5,0,3,0,3,0,,,,,,,,2.0024074377579435,both,,,,1,38,[],0.019331929999680142,None,None,263.7415558,263.7415558,0.23107842999979766,2.233485867757741,263.96408610000003,263.7415558,,,,,,,,,,,cwzopc,001,english,0,2022-07-20_10h39.46.286,Continuous,2022.1.1,34.12413746977165,
5,0,5,0,4,0,4,0,,,,,,,,2.0024074377579435,both,977.0,3.0,6.13023513265057e-05,0,39,[],0.023385330000110116,None,None,265.9610293999999,265.9610293999999,0.24337723000007827,2.2457846677580218,266.18373199999996,265.9610293999999,,,,,,,,,,,cwzopc,001,english,0,2022-07-20_10h39.46.286,Continuous,2022.1.1,34.12413746977165,
5,0,5,0,5,0,5,0,,,,,,,,2.0024074377579435,both,652.0,1.9469980708816421,6.1606631677658e-05,0,40,[],0.020658629999616096,None,None,268.1791679999999,268.1791679999999,0.23903772999960893,2.2414451677575524,268.40473569999995,268.1791679999999,,,,,,,,,,,cwzopc,001,english,0,2022-07-20_10h39.46.286,Continuous,2022.1.1,34.12413746977165,
5,0,5,0,6,0,6,0,,,,,,,,2.0024074377579435,both,435.0,2.6224944175155795,0.0001011180743461752,0,41,[],0.018688030000248546,None,None,270.4002912000001,270.4002912000001,0.23320953000029476,2.2356169677582383,270.6241072,270.4002912000001,,,,,,,,,,,cwzopc,001,english,0,2022-07-20_10h39.46.286,Continuous,2022.1.1,34.12413746977165,
5,0,5,0,7,0,7,0,,,,,,,,2.0024074377579435,both,290.0,3.155359088237042,0.000179906703580505,0,42,[],0.017298930000151813,None,None,272.6185404999999,272.6185404999999,0.23086763000014798,2.2332750677580915,272.8524872999999,272.6185404999999,,,,,,,,,,,cwzopc,001,english,0,2022-07-20_10h39.46.286,Continuous,2022.1.1,34.12413746977165,
5,0,5,0,8,0,8,0,,,,,,,,2.0024074377579435,both,194.0,1.7700242451990127,0.0003522312635024125,0,43,[],0.02176282999994328,None,None,274.8493039,274.8493039,0.23953963000008116,2.2419470677580247,275.07160780000004,274.8493039,,,,,,,,,,,cwzopc,001,english,0,2022-07-20_10h39.46.286,Continuous,2022.1.1,34.12413746977165,
6,0,6,0,0,0,0,0,,,,,,281.6381957000001,None,2.7640343809532326,none,189.0,5.0,0.0005432714291414459,0,36,[],0.02570192999974097,None,None,282.65030720000004,None,0.24555662999978267,3.0095910109530153,282.8716013999999,None,277.0703000000001,None,"[0.3333333333333333, 0.5833333333333334, 0.3333333333333333, 0.5833333333333334, 0.16666666666666666, 0.5833333333333334, 0.16666666666666666, 0.16666666666666666, 0.5833333333333334, 0.3333333333333333, 0.16666666666666666, 0.3333333333333333, 0.5833333333333334, 0.3333333333333333, 0.3333333333333333]",,,,,,,,cwzopc,001,english,0,2022-07-20_10h39.46.286,Continuous,2022.1.1,34.12413746977165,
6,0,6,0,1,0,1,0,,,,,,,,1.0404839293398533,none,267.0,4.656736955229528,0.0002555047170572419,0,37,[],0.021453830000154994,None,['space'],285.63162310000007,285.63162310000007,0.2422590300000138,1.2827429593398672,285.8569316999999,285.63162310000007,,,,[-2.210627299999942],,,,,,,cwzopc,001,english,0,2022-07-20_10h39.46.286,Continuous,2022.1.1,34.12413746977165,
6,0,6,0,2,0,2,0,,,,,,,,1.42586203722902,none,,,,1,37,[],0.021732829999791647,None,['space'],286.8918535999999,286.8918535999999,0.23929922999991504,1.665161267228935,287.11340670000004,286.8918535999999,,,,[-0.7023270000001958],,,,,,,cwzopc,001,english,0,2022-07-20_10h39.46.286,Continuous,2022.1.1,34.12413746977165,
6,0,6,0,3,0,3,0,,,,,,,,1.526654380046152,none,126.0,4.573926289378307,0.0012086018186165319,0,38,[],0.022919129999991128,None,None,288.53415900000005,288.53415900000005,0.24301973000001453,1.7696741100461666,288.75875569999994,288.53415900000005,,,,,,,,,,,cwzopc,001,english,0,2022-07-20_10h39.46.286,Continuous,2022.1.1,34.12413746977165,
6,0,6,0,4,0,4,0,,,,,,,,1.1447542477527992,none,238.0,3.5925945835820365,0.00028883324533215564,0,39,[],0.021245829999998023,None,None,290.27979260000006,290.27979260000006,0.2385214299999916,1.3832756777527908,290.5036917,290.27979260000006,,,,,,,,,,,cwzopc,001,english,0,2022-07-20_10h39.46.286,Continuous,2022.1.1,34.12413746977165,
6,0,6,0,5,0,5,0,,,,,,,,1.0268842607627051,none,503.0,4.274186681134521,0.00011609810147425361,0,40,[],0.016986430000315522,None,['space'],291.6398303000001,291.6398303000001,0.2333635300003607,1.2602477907630658,291.87341119999996,291.6398303000001,,,,[-0.794532700000218],,,,,,,cwzopc,001,english,0,2022-07-20_10h39.46.286,Continuous,2022.1.1,34.12413746977165,
6,0,6,0,6,0,6,0,,,,,,,,2.723404894025114,none,634.0,1.412030931245987,5.978385200055966e-05,0,41,[],0.016256829999974798,None,['space'],292.8922737999999,292.8922737999999,0.2295207299998765,2.9529256240249904,293.1239905,292.8922737999999,,,,[-0.35105369999996583],,,,,,,cwzopc,001,english,0,2022-07-20_10h39.46.286,Continuous,2022.1.1,34.12413746977165,
6,0,6,0,7,0,7,0,,,,,,,,1.391280724080989,none,799.0,1.2256623750756561,4.4235148512633776e-05,0,42,[],0.02136092999990069,None,None,295.8419208,295.8419208,0.2424187299998266,1.6336994540808156,296.0661233999999,295.8419208,,,,,,,,,,,cwzopc,001,english,0,2022-07-20_10h39.46.286,Continuous,2022.1.1,34.12413746977165,
7,0,7,0,0,0,0,0,,,,,0.3333333333333333,301.1638017999999,None,1.9289016704605082,both,4924.0,8.315180149065878,0.00038423818470568105,0,44,[],0.025759230000176103,None,None,302.1850717,None,0.22295313000017813,2.1518548004606863,302.38932109999996,None,297.453389,None,,,,,,,,,cwzopc,001,english,0,2022-07-20_10h39.46.286,Continuous,2022.1.1,34.12413746977165,
7,0,7,0,1,0,1,0,,,,,,,,1.9289016704605082,both,3908.0,2.9261941823710798,0.00011530353630473568,0,45,[],0.01507642999968084,None,['space'],304.3216130999999,304.3216130999999,0.22844292999980098,2.157344600460309,304.5515811999999,304.3216130999999,,,,[-1.6919536000002608],,,,,,,cwzopc,001,english,0,2022-07-20_10h39.46.286,Continuous,2022.1.1,34.12413746977165,
7,0,7,0,2,0,2,0,,,,,,,,1.9289016704605082,both,3102.0,4.410383834592224,0.00010713271275792458,0,46,[],0.015388830000119924,None,['space'],306.4746723999999,306.4746723999999,0.22673333000011553,2.1556350004606237,306.69931859999997,306.4746723999999,,,,[-1.7018676000000141],,,,,,,cwzopc,001,english,0,2022-07-20_10h39.46.286,Continuous,2022.1.1,34.12413746977165,
7,0,7,0,3,0,3,0,,,,,,,,1.9289016704605082,both,2462.0,11.426426570302429,0.0003169649837483057,0,47,[],0.019926430000396067,None,['space'],308.6224253999999,308.6224253999999,0.23851933000037207,2.1674210004608803,308.8474017000001,308.6224253999999,,,,[-1.6007684999999583],,,,,,,cwzopc,001,english,0,2022-07-20_10h39.46.286,Continuous,2022.1.1,34.12413746977165,
7,0,7,0,4,0,4,0,,,,,,,,1.9289016704605082,both,1954.0,11.862191396755552,0.0002850043314543233,0,48,[],0.0211001299999225,None,['space'],310.7726444,310.7726444,0.2414386299999478,2.170340300460456,310.99676150000005,310.7726444,,,,[-1.57585610000001],,,,,,,cwzopc,001,english,0,2022-07-20_10h39.46.286,Continuous,2022.1.1,34.12413746977165,
7,0,7,0,5,0,5,0,,,,,,,,1.9289016704605082,both,1551.0,10.303793194744351,0.00017229251113048052,0,49,[],0.021185530000138897,None,['space'],312.9211338,312.9211338,0.23988473000008526,2.1687864004605935,313.1442276,312.9211338,,,,[-1.7797347000000627],,,,,,,cwzopc,001,english,0,2022-07-20_10h39.46.286,Continuous,2022.1.1,34.12413746977165,
7,0,7,0,6,0,6,0,,,,,,,,1.9289016704605082,both,1231.0,12.0,0.00021384131301406921,0,50,[],0.015780530000029103,None,['space'],315.0631607,315.0631607,0.22601643000007243,2.1549181004605806,315.29173220000007,315.0631607,,,,[-1.7542490000000726],,,,,,,cwzopc,001,english,0,2022-07-20_10h39.46.286,Continuous,2022.1.1,34.12413746977165,
7,0,7,0,7,0,7,0,,,,,,,,1.9289016704605082,both,,,,1,50,[],0.0199299300002167,None,['space'],317.21666529999993,317.21666529999993,0.2393261300001086,2.168227800460617,317.44130870000004,317.21666529999993,,,,[-1.595299999999952],,,,,,,cwzopc,001,english,0,2022-07-20_10h39.46.286,Continuous,2022.1.1,34.12413746977165,
7,0,7,0,8,0,8,0,,,,,,,,1.9289016704605082,both,775.0,4.08685841297546,6.324013518272954e-05,0,51,[],0.02213222999989739,None,None,319.36499230000004,319.36499230000004,0.24334392999980992,2.172245600460318,319.5899869,319.36499230000004,,,,,,,,,,,cwzopc,001,english,0,2022-07-20_10h39.46.286,Continuous,2022.1.1,34.12413746977165,
7,0,7,0,9,0,9,0,,,,,,,,1.9289016704605082,both,615.0,-0.33579154003404604,5.147566816780217e-05,0,52,[],0.020815430000084234,None,None,321.51692249999996,321.51692249999996,0.23823383000012655,2.1671355004606347,321.73866780000003,321.51692249999996,,,,,,,,,,,cwzopc,001,english,0,2022-07-20_10h39.46.286,Continuous,2022.1.1,34.12413746977165,
7,0,7,0,10,0,10,0,,,,,,,,1.9289016704605082,both,488.0,3.2218381807646628,0.0001044174932325985,0,53,[],0.015872929999886765,None,['space'],323.6595622,323.6595622,0.23139042999991943,2.1602921004604276,323.8875826000001,323.6595622,,,,[-0.11029910000024756],,,,,,,cwzopc,001,english,0,2022-07-20_10h39.46.286,Continuous,2022.1.1,34.12413746977165,
7,0,7,0,11,0,11,0,,,,,,,,1.9289016704605082,both,387.0,4.904400041766168,0.00014058078261060454,0,54,[],0.013798829999814188,None,None,325.81359010000006,325.81359010000006,0.20955632999994123,2.1384580004604494,326.0313735,325.81359010000006,,,,,,,,,,,cwzopc,001,english,0,2022-07-20_10h39.46.286,Continuous,2022.1.1,34.12413746977165,
7,0,7,0,12,0,12,0,,,,,,,,1.9289016704605082,both,307.0,7.7101895942204965,0.00026018627695046146,0,55,[],0.01097023000011177,0.20817793000014717,['space'],327.9717452,327.9717452,0.20817793000014717,2.1370796004606554,328.1848451000001,327.9717452,,,,[-1.5356318000001465],,,,,,,cwzopc,001,english,0,2022-07-20_10h39.46.286,Continuous,2022.1.1,34.12413746977165,
7,0,7,0,13,0,13,0,,,,,,,,1.9289016704605082,both,244.0,3.1665397483967515,0.0002580814185589446,0,56,[],0.014841830000023037,None,['space'],330.1159132999999,330.1159132999999,0.21286162999990665,2.141763300460415,330.33610999999996,330.1159132999999,,,,[-1.7428995000002487],,,,,,,cwzopc,001,english,0,2022-07-20_10h39.46.286,Continuous,2022.1.1,34.12413746977165,
7,0,7,0,14,0,14,0,,,,,,,,1.9289016704605082,both,194.0,10.79096113129921,0.0009951183734701477,0,57,[],0.014852129999781027,0.2148628299999018,['space'],332.27110489999995,332.27110489999995,0.2148628299999018,2.14376450046041,332.48693690000005,332.27110489999995,,,,[-1.7628460000000814],,,,,,,cwzopc,001,english,0,2022-07-20_10h39.46.286,Continuous,2022.1.1,34.12413746977165,
8,0,8,0,0,0,0,0,,,,,0.5833333333333334,352.4206383999999,None,2.385663358904279,frequency,4002.0,-0.4065579506171446,8.023308788145277e-05,0,46,[],0.021989830000165966,None,None,353.4432703,None,0.22546863000002304,2.611131988904302,353.66165580000006,None,334.42025609999996,None,,,,,,,,,cwzopc,001,english,0,2022-07-20_10h39.46.286,Continuous,2022.1.1,34.12413746977165,
8,0,8,0,1,0,1,0,,,,,,,,1.4659078881621177,frequency,2671.0,3.6307600527078705,0.00011432835002703505,0,47,[],0.016959229999883974,None,['space'],356.06441889999996,356.06441889999996,0.23254483000005166,1.6984527181621694,356.27995310000006,356.06441889999996,,,,[-2.170987700000069],,,,,,,cwzopc,001,english,0,2022-07-20_10h39.46.286,Continuous,2022.1.1,34.12413746977165,
8,0,8,0,2,0,2,0,,,,,,,,2.7727761762503618,frequency,1783.0,6.0,0.00012971910425121008,0,48,[],0.01939753000010569,None,['space'],357.74327029999995,357.74327029999995,0.22537663000025532,2.998152806250617,357.95937219999996,357.74327029999995,,,,[-1.155174400000078],,,,,,,cwzopc,001,english,0,2022-07-20_10h39.46.286,Continuous,2022.1.1,34.12413746977165,
8,0,8,0,3,0,3,0,,,,,,,,2.752259050880715,frequency,1190.0,6.0,0.00010375283666024616,0,49,[],0.01970103000007839,None,['space'],360.7294944999999,360.7294944999999,0.2263459299999795,2.9786049808806947,360.95061140000007,360.7294944999999,,,,[-2.044928900000059],,,,,,,cwzopc,001,english,0,2022-07-20_10h39.46.286,Continuous,2022.1.1,34.12413746977165,
8,0,8,0,4,0,4,0,,,,,,,,2.778946174511822,frequency,794.0,4.895894415885883,6.789563057883784e-05,0,50,[],0.01727372999994259,None,['space'],363.69998140000007,363.69998140000007,0.2220737300001474,3.001019904511969,363.91993879999995,363.69998140000007,,,,[-2.0153346000001875],,,,,,,cwzopc,001,english,0,2022-07-20_10h39.46.286,Continuous,2022.1.1,34.12413746977165,
8,0,8,0,5,0,5,0,,,,,,,,1.696012226304647,frequency,530.0,1.084915834838331,7.564715643683084e-05,0,51,[],0.009096030000137034,0.2073178299999654,['space'],366.69853390000003,366.69853390000003,0.2073178299999654,1.9033300563046125,366.92095889999996,366.69853390000003,,,,[-2.2695295000000897],,,,,,,cwzopc,001,english,0,2022-07-20_10h39.46.286,Continuous,2022.1.1,34.12413746977165,
8,0,8,0,6,0,6,0,,,,,,,,2.8038260550060348,frequency,354.0,6.0,0.0001765735047794486,0,52,[],0.014912230000390991,None,['space'],368.6038159,368.6038159,0.226163630000201,3.0299896850062358,368.8353970999999,368.6038159,,,,[-0.5350051000000349],,,,,,,cwzopc,001,english,0,2022-07-20_10h39.46.286,Continuous,2022.1.1,34.12413746977165,
8,0,8,0,7,0,7,0,,,,,,,,2.020163315386224,frequency,236.0,3.3669320794018796,0.00028719958034180296,0,53,[],0.020375230000126976,None,['space'],371.6375594000001,371.6375594000001,0.2214187300003232,2.241582045386547,371.84510550000005,371.6375594000001,,,,[-2.3610858000001826],,,,,,,cwzopc,001,english,0,2022-07-20_10h39.46.286,Continuous,2022.1.1,34.12413746977165,
8,0,8,0,8,0,8,0,,,,,,,,1.165323096383912,frequency,158.0,3.355850960690845,0.0006312129342461089,0,54,[],0.020065629999862722,0.2102337300000272,['space'],373.873881,373.873881,0.2102337300000272,1.3755568263839393,374.07730459999993,373.873881,,,,[-1.6922137999999904],,,,,,,cwzopc,001,english,0,2022-07-20_10h39.46.286,Continuous,2022.1.1,34.12413746977165,
8,0,8,0,9,0,9,0,,,,,,,,2.291616152285077,frequency,,,,1,54,[],0.015600830000039423,None,['space'],375.2438829,375.2438829,0.22959162999995897,2.521207782285036,375.4756963,375.2438829,,,,[-0.9114108000001124],,,,,,,cwzopc,001,english,0,2022-07-20_10h39.46.286,Continuous,2022.1.1,34.12413746977165,
9,0,9,0,0,0,0,0,,,,,0.16666666666666666,382.58566169999995,None,2.807716843626094,both,8000.0,4.0,0.0002877199686685786,0,58,[],0.02521493000040209,None,None,383.5973214999999,None,0.2506588300002477,3.0583756736263417,383.82348490000004,None,377.76179060000004,None,,,,,,,,,cwzopc,001,english,0,2022-07-20_10h39.46.286,Continuous,2022.1.1,34.12413746977165,
9,0,9,0,1,0,1,0,,,,,,,,2.807716843626094,both,7127.0,3.14669315401656,0.00022278202059596537,0,59,[],0.014601129999846307,None,['space'],386.62345389999996,386.62345389999996,0.22700402999998914,3.034720873626083,386.85579699999994,386.62345389999996,,,,[-2.4977545000001555],,,,,,,cwzopc,001,english,0,2022-07-20_10h39.46.286,Continuous,2022.1.1,34.12413746977165,
9,0,9,0,2,0,2,0,,,,,,,,2.807716843626094,both,6349.0,2.5092232131379397,0.00017553540895362093,0,60,[],0.017563929999823813,None,['space'],389.6578221,389.6578221,0.23394072999985838,3.0416575736259523,389.88336159999994,389.6578221,,,,[-2.645046099999945],,,,,,,cwzopc,001,english,0,2022-07-20_10h39.46.286,Continuous,2022.1.1,34.12413746977165,
9,0,9,0,3,0,3,0,,,,,,,,2.807716843626094,both,5656.0,3.0766205401774465,0.0001831979601763682,0,61,[],0.011213730000008582,None,['space'],392.6883906999999,392.6883906999999,0.223135129999946,3.03085197362604,392.91327490000003,392.6883906999999,,,,[-2.635189000000082],,,,,,,cwzopc,001,english,0,2022-07-20_10h39.46.286,Continuous,2022.1.1,34.12413746977165,
9,0,9,0,4,0,4,0,,,,,,,,2.807716843626094,both,5039.0,1.3848319193199976,0.00017746108791198277,0,62,[],0.015030329999717651,None,['space'],395.71829419999995,395.71829419999995,0.22945862999972633,3.0371754736258203,395.9450912,395.71829419999995,,,,[-2.640645100000029],,,,,,,cwzopc,001,english,0,2022-07-20_10h39.46.286,Continuous,2022.1.1,34.12413746977165,
9,0,9,0,5,0,5,0,,,,,,,,2.807716843626094,both,4489.0,2.5431691977130346,0.0001575850636426673,0,63,[],0.019541130000106932,0.2091205300000638,['space'],398.7513236,398.7513236,0.2091205300000638,3.016837373626158,398.9546527,398.7513236,,,,[-2.5544957000001887],,,,,,,cwzopc,001,english,0,2022-07-20_10h39.46.286,Continuous,2022.1.1,34.12413746977165,
9,0,9,0,6,0,6,0,,,,,,,,2.807716843626094,both,,,,1,63,[],0.019732630000362406,None,['space'],401.76978280000003,401.76978280000003,0.24149783000029856,3.0492146736263925,401.9960768000001,401.76978280000003,,,,[-2.627798700000085],,,,,,,cwzopc,001,english,0,2022-07-20_10h39.46.286,Continuous,2022.1.1,34.12413746977165,
9,0,9,0,7,0,7,0,,,,,,,,2.807716843626094,both,3563.0,0.06158975426132596,7.681178704448795e-05,0,64,[],0.015234729999974661,None,None,404.7965125999999,404.7965125999999,0.22363612999993165,3.0313529736260256,405.0238343000001,404.7965125999999,,,,,,,,,,,cwzopc,001,english,0,2022-07-20_10h39.46.286,Continuous,2022.1.1,34.12413746977165,
9,0,9,0,8,0,8,0,,,,,,,,2.807716843626094,both,3174.0,3.083558564969573,9.903548681794822e-05,0,65,[],0.015331329999753507,None,None,407.8289763,407.8289763,0.21191402999988895,3.019630873625983,408.0431211,407.8289763,,,,,,,,,,,cwzopc,001,english,0,2022-07-20_10h39.46.286,Continuous,2022.1.1,34.12413746977165,
10,0,10,0,0,0,0,0,,,,,0.3333333333333333,426.6541167999999,None,2.9833324350832378,frequency,7817.0,-2.3830164914118805,0.00013376477406895016,0,55,[],0.02439892999973381,None,None,427.6669638999999,None,0.21534602999986419,3.198678465083102,427.8688359999999,None,410.85505779999994,None,,,,,,,,,cwzopc,001,english,0,2022-07-20_10h39.46.286,Continuous,2022.1.1,34.12413746977165,
10,0,10,0,1,0,1,0,,,,,,,,1.3318372724209213,frequency,6204.0,-0.9551416707427252,0.00011241658007873497,0,56,[],0.010601129999940895,None,['space'],430.86139320000007,430.86139320000007,0.22123362999991514,1.5530709024208365,431.0875335999999,430.86139320000007,,,,[-2.8005057000000306],,,,,,,cwzopc,001,english,0,2022-07-20_10h39.46.286,Continuous,2022.1.1,34.12413746977165,
10,0,10,0,2,0,2,0,,,,,,,,2.6111706375273664,frequency,,,,1,56,[],0.015598030000091967,None,['space'],432.42057,432.42057,0.23027752999996665,2.841448167527333,432.65190359999997,432.42057,,,,[-1.0632327000000714],,,,,,,cwzopc,001,english,0,2022-07-20_10h39.46.286,Continuous,2022.1.1,34.12413746977165,
10,0,10,0,3,0,3,0,,,,,,,,1.0909309215661855,frequency,3908.0,-2.0595796365418666,6.494622849747327e-05,0,57,[],0.01828733000002103,0.2079950300001201,None,435.2559730999999,435.2559730999999,0.2079950300001201,1.2989259515663056,435.46402420000004,435.2559730999999,,,,,,,,,,,cwzopc,001,english,0,2022-07-20_10h39.46.286,Continuous,2022.1.1,34.12413746977165,
10,0,10,0,4,0,4,0,,,,,,,,1.7573098514878103,frequency,3102.0,-2.684447531401364,4.733479861146787e-05,0,58,[],0.016145430000278793,None,['space'],436.55790939999997,436.55790939999997,0.23187563000010414,1.9891854814879144,436.7854485999999,436.55790939999997,,,,[-0.7128620999999384],,,,,,,cwzopc,001,english,0,2022-07-20_10h39.46.286,Continuous,2022.1.1,34.12413746977165,
10,0,10,0,5,0,5,0,,,,,,,,2.2672620386055984,frequency,2462.0,-3.0,6.0212957385535926e-05,0,59,[],0.019344329999967158,0.20852102999992894,None,438.539119,438.539119,0.20852102999992894,2.4757830686055273,438.7450764,438.539119,,,,,,,,,,,cwzopc,001,english,0,2022-07-20_10h39.46.286,Continuous,2022.1.1,34.12413746977165,
10,0,10,0,6,0,6,0,,,,,,,,1.676563915908894,frequency,1954.0,0.24731826763281983,7.483552400029418e-05,0,60,[],0.014295429999947373,None,['space'],441.0138890999999,441.0138890999999,0.2283457300000009,1.904909645908895,441.24144350000006,441.0138890999999,,,,[-1.8885475000001861],,,,,,,cwzopc,001,english,0,2022-07-20_10h39.46.286,Continuous,2022.1.1,34.12413746977165,
10,0,10,0,7,0,7,0,,,,,,,,2.7136440112438756,frequency,1551.0,-2.8137639123397555,3.80529688372599e-05,0,61,[],0.019072829999913665,0.20780122999985906,None,442.91378639999994,442.91378639999994,0.20780122999985906,2.9214452412437346,443.11694809999995,442.91378639999994,,,,,,,,,,,cwzopc,001,english,0,2022-07-20_10h39.46.286,Continuous,2022.1.1,34.12413746977165,
10,0,10,0,8,0,8,0,,,,,,,,2.5115554631921686,frequency,1231.0,5.398950503578737,0.00010000901216262035,0,62,[],0.019124629999851095,0.2102043299998968,None,445.8329335000001,445.8329335000001,0.2102043299998968,2.7217597931920654,446.0359489,445.8329335000001,,,,,,,,,,,cwzopc,001,english,0,2022-07-20_10h39.46.286,Continuous,2022.1.1,34.12413746977165,
10,0,10,0,9,0,9,0,,,,,,,,1.147514687702536,frequency,977.0,-0.9138078746122469,3.906490198616886e-05,0,63,[],0.019026830000029804,0.21098492999999507,None,448.55215799999996,448.55215799999996,0.21098492999999507,1.358499617702531,448.7557712,448.55215799999996,,,,,,,,,,,cwzopc,001,english,0,2022-07-20_10h39.46.286,Continuous,2022.1.1,34.12413746977165,
10,0,10,0,10,0,10,0,,,,,,,,1.735082038088372,frequency,775.0,0.2948788557107469,4.086898121769404e-05,0,64,[],0.01778703000013593,None,None,449.9046114,449.9046114,0.2372021300002416,1.9722841680886136,450.1310934999999,449.9046114,,,,,,,,,,,cwzopc,001,english,0,2022-07-20_10h39.46.286,Continuous,2022.1.1,34.12413746977165,
10,0,10,0,11,0,11,0,,,,,,,,1.8100805640745723,frequency,615.0,-2.4888427456827715,4.0174403048541826e-05,0,65,[],0.01431593000029352,None,None,451.8585161000001,451.8585161000001,0.22651173000031122,2.0365922940748833,452.0886495,451.8585161000001,,,,,,,,,,,cwzopc,001,english,0,2022-07-20_10h39.46.286,Continuous,2022.1.1,34.12413746977165,
10,0,10,0,12,0,12,0,,,,,,,,2.204985459280387,frequency,488.0,-0.9545154977124272,6.455881927249854e-05,0,66,[],0.01566172999991977,None,None,453.8936455999999,453.8936455999999,0.231493829999863,2.43647928928025,454.1194364999999,453.8936455999999,,,,,,,,,,,cwzopc,001,english,0,2022-07-20_10h39.46.286,Continuous,2022.1.1,34.12413746977165,
10,0,10,0,13,0,13,0,,,,,,,,1.9693774550952088,frequency,387.0,2.942743544154639,0.00011216132517930883,0,67,[],0.010391929999741478,None,None,456.32340909999994,456.32340909999994,0.22030382999969333,2.189681285094902,456.5472536,456.32340909999994,,,,,,,,,,,cwzopc,001,english,0,2022-07-20_10h39.46.286,Continuous,2022.1.1,34.12413746977165,
11,0,11,0,0,0,0,0,,,,,,495.3905155,None,2.5624874154755863,none,3483.0,-1.889202966248001,6.023058923415115e-05,0,43,[],0.025277429999960077,None,None,496.4033377999999,None,0.22136402999990423,2.7838514454754906,496.6069212,None,458.5144957,None,"[0.16666666666666666, 0.3333333333333333, 0.3333333333333333, 0.3333333333333333, 0.3333333333333333, 0.5833333333333334, 0.5833333333333334, 0.16666666666666666, 0.3333333333333333, 0.5833333333333334, 0.5833333333333334, 0.16666666666666666, 0.3333333333333333, 0.5833333333333334, 0.5833333333333334]",,,,,,,,cwzopc,001,english,0,2022-07-20_10h39.46.286,Continuous,2022.1.1,34.12413746977165,
11,0,11,0,1,0,1,0,,,,,,,,2.4036255152248165,none,1232.0,3.830246748028568,8.354914316234448e-05,0,44,[],0.01194033000001582,0.20143102999986695,['space'],499.17708500000003,499.17708500000003,0.20143102999986695,2.6050565452246834,499.3941612000001,499.17708500000003,,,,[-1.9565526000001228],,,,,,,cwzopc,001,english,0,2022-07-20_10h39.46.286,Continuous,2022.1.1,34.12413746977165,
11,0,11,0,2,0,2,0,,,,,,,,2.312390059489364,none,3909.0,-0.3805370541026014,7.881314523799925e-05,0,45,[],0.013565529999823411,0.19795162999980676,None,501.7980407,501.7980407,0.19795162999980676,2.5103416894891706,501.9961418999999,501.7980407,,,,,,,,,,,cwzopc,001,english,0,2022-07-20_10h39.46.286,Continuous,2022.1.1,34.12413746977165,
11,0,11,0,3,0,3,0,,,,,,,,2.643204352693642,none,,,,1,45,[],0.01460523000014291,0.19917183000006844,['space'],504.3128213,504.3128213,0.19917183000006844,2.8423761826937106,504.51588059999995,504.3128213,,,,[-2.0512417000002188],,,,,,,cwzopc,001,english,0,2022-07-20_10h39.46.286,Continuous,2022.1.1,34.12413746977165,
11,0,11,0,4,0,4,0,,,,,,,,1.0770160611971897,none,616.0,2.72206448905155,7.298383796215484e-05,0,46,[],0.019595429999981206,None,None,507.1666777999999,507.1666777999999,0.21330842999987,1.2903244911970597,507.3728613999999,507.1666777999999,,,,,,,,,,,cwzopc,001,english,0,2022-07-20_10h39.46.286,Continuous,2022.1.1,34.12413746977165,
11,0,11,0,5,0,5,0,,,,,,,,2.5744384122756125,none,2325.0,1.0735498552847287,9.280617066986089e-05,0,47,[],0.008341629999904399,0.19232922999981383,None,508.46522830000004,508.46522830000004,0.19232922999981383,2.7667676422754264,508.6712445999999,508.46522830000004,,,,,,,,,,,cwzopc,001,english,0,2022-07-20_10h39.46.286,Continuous,2022.1.1,34.12413746977165,
11,0,11,0,6,0,6,0,,,,,,,,2.1124027858761227,none,1552.0,7.257464014831102,0.00012151971698056295,0,48,[],0.018296129999953337,None,['space'],511.2535106999999,511.2535106999999,0.21762362999993456,2.3300264158760573,511.45702929999993,511.2535106999999,,,,[-2.2399535000001833],,,,,,,cwzopc,001,english,0,2022-07-20_10h39.46.286,Continuous,2022.1.1,34.12413746977165,
11,0,11,0,7,0,7,0,,,,,,,,1.4078636803359659,none,978.0,3.0,6.134249825094325e-05,0,49,[],0.014605829999936759,0.20146982999972352,None,513.5745411,513.5745411,0.20146982999972352,1.6093335103356894,513.7752317,513.5745411,,,,,,,,,,,cwzopc,001,english,0,2022-07-20_10h39.46.286,Continuous,2022.1.1,34.12413746977165,
11,0,11,0,8,0,8,0,,,,,,,,2.6185551130388323,none,4925.0,3.0,0.00020847022442907278,0,50,[],0.01720213000021431,0.20497553000018343,['space'],515.1900917,515.1900917,0.20497553000018343,2.8235306430390157,515.3947722999999,515.1900917,,,,[-1.1689223000000766],,,,,,,cwzopc,001,english,0,2022-07-20_10h39.46.286,Continuous,2022.1.1,34.12413746977165,
11,0,11,0,9,0,9,0,,,,,,,,2.4308515261214656,none,7379.0,2.847832585719898,0.0002258495979842813,0,51,[],0.018297829999937676,0.20953712999994423,"['space', 'space']",518.0236852999999,518.0236852999999,0.20953712999994423,2.64038865612141,518.2302838999999,518.0236852999999,,,,"[-2.2181950000001507, -0.042912399999977424]",,,,,,,cwzopc,001,english,0,2022-07-20_10h39.46.286,Continuous,2022.1.1,34.12413746977165,
12,0,12,0,0,0,0,0,,,,,0.16666666666666666,527.2423233,None,2.315693296164259,frequency,249.0,3.3071703949862328,0.00024795870361178976,0,68,[],0.02323842999999215,None,None,528.2570995000001,None,0.24958252999999786,2.5652758261642568,528.4912032,None,520.6632645,None,,,,,,,,,cwzopc,001,english,0,2022-07-20_10h39.46.286,Continuous,2022.1.1,34.12413746977165,
12,0,12,0,1,0,1,0,,,,,,,,2.5994872549342665,frequency,222.0,3.960393447480607,0.0003507820435109832,0,69,[],0.012192229999755,0.20782482999970853,['space'],530.8098276999999,530.8098276999999,0.20782482999970853,2.807312084933975,531.0142906000001,530.8098276999999,,,,[-1.9562241999999515],,,,,,,cwzopc,001,english,0,2022-07-20_10h39.46.286,Continuous,2022.1.1,34.12413746977165,
12,0,12,0,2,0,2,0,,,,,,,,2.4201497408199577,frequency,198.0,2.6992802743382747,0.0003721267061463768,0,70,[],0.017350829999713824,None,['space'],533.6268074,533.6268074,0.2138749299997471,2.634024670819705,533.8343947000001,533.6268074,,,,[-2.445329400000219],,,,,,,cwzopc,001,english,0,2022-07-20_10h39.46.286,Continuous,2022.1.1,34.12413746977165,
12,0,12,0,3,0,3,0,,,,,,,,1.1275980820291636,frequency,176.0,1.711583555759951,0.00042970351911356553,0,71,[],0.017699530000072627,None,['space'],536.2639623,536.2639623,0.21403893000001517,1.3416370120291787,536.4743123000001,536.2639623,,,,[-2.2354142000001502],,,,,,,cwzopc,001,english,0,2022-07-20_10h39.46.286,Continuous,2022.1.1,34.12413746977165,
12,0,12,0,4,0,4,0,,,,,,,,1.4407530333492313,frequency,157.0,1.577505286420062,0.000525025690964339,0,72,[],0.017397730000084266,None,['space'],537.6134711,537.6134711,0.22155333000023347,1.6623063633494648,537.8343439999999,537.6134711,,,,[-0.8970026000001781],,,,,,,cwzopc,001,english,0,2022-07-20_10h39.46.286,Continuous,2022.1.1,34.12413746977165,
12,0,12,0,5,0,5,0,,,,,,,,1.5399162916369753,frequency,140.0,1.9349645347498043,0.000736197752126639,0,73,[],0.011790830000336427,0.20013973000027363,None,539.2705748999999,539.2705748999999,0.20013973000027363,1.740056021637249,539.4743243999999,539.2705748999999,,,,,,,,,,,cwzopc,001,english,0,2022-07-20_10h39.46.286,Continuous,2022.1.1,34.12413746977165,
12,0,12,0,6,0,6,0,,,,,,,,1.0144862501775345,frequency,125.0,4.0,0.0011454338263838868,0,74,[],0.011737930000208507,0.19440543000018806,['space'],541.0211721000001,541.0211721000001,0.19440543000018806,1.2088916801777225,541.2228918000001,541.0211721000001,,,,[-1.1513110999999299],,,,,,,cwzopc,001,english,0,2022-07-20_10h39.46.286,Continuous,2022.1.1,34.12413746977165,
12,0,12,0,7,0,7,0,,,,,,,,1.0064352253694562,frequency,,,,1,74,[],0.01730213000018921,None,['space'],542.2502850999999,542.2502850999999,0.22111543000028178,1.227550655369738,542.4621989,542.2502850999999,,,,[-0.5092944000002717],,,,,,,cwzopc,001,english,0,2022-07-20_10h39.46.286,Continuous,2022.1.1,34.12413746977165,
13,0,13,0,0,0,0,0,,,,,0.5833333333333334,552.31124,None,1.471263808791966,both,1411.0,7.150367899701562,0.00011505725558861651,0,66,[],0.025762329999906797,None,None,553.3352459,None,0.25152223000009144,1.7227860387920575,553.5596358,None,543.4729250999999,None,,,,,,,,,cwzopc,001,english,0,2022-07-20_10h39.46.286,Continuous,2022.1.1,34.12413746977165,
13,0,13,0,1,0,1,0,,,,,,,,1.471263808791966,both,942.0,6.251103277666719,8.708868840602797e-05,0,67,[],0.017671830000153932,0.2074739300001056,['space'],555.0323160999999,555.0323160999999,0.2074739300001056,1.6787377387920717,555.2347496,555.0323160999999,,,,[-1.1310483000002023],,,,,,,cwzopc,001,english,0,2022-07-20_10h39.46.286,Continuous,2022.1.1,34.12413746977165,
13,0,13,0,2,0,2,0,,,,,,,,1.471263808791966,both,629.0,2.777698097577805,7.06605564285187e-05,0,68,[],0.01006692999999359,None,['space'],556.7109062,556.7109062,0.2187097300000005,1.6899735387919665,556.9364814999999,556.7109062,,,,[-1.1374181000001045],,,,,,,cwzopc,001,english,0,2022-07-20_10h39.46.286,Continuous,2022.1.1,34.12413746977165,
13,0,13,0,3,0,3,0,,,,,,,,1.471263808791966,both,420.0,5.155797257919187,0.00013674875027344123,0,69,[],0.010815129999855344,None,['space'],558.4115182,558.4115182,0.22100812999997288,1.692271938791939,558.6386580999999,558.4115182,,,,[-0.8938289000002442],,,,,,,cwzopc,001,english,0,2022-07-20_10h39.46.286,Continuous,2022.1.1,34.12413746977165,
13,0,13,0,4,0,4,0,,,,,,,,1.471263808791966,both,280.0,4.551327908516696,0.0002291646812545363,0,70,[],0.013078630000109115,None,['space'],560.1056538999999,560.1056538999999,0.22737933000030353,1.6986431387922696,560.333022,560.1056538999999,,,,[-1.1637316999999712],,,,,,,cwzopc,001,english,0,2022-07-20_10h39.46.286,Continuous,2022.1.1,34.12413746977165,
13,0,13,0,5,0,5,0,,,,,,,,1.471263808791966,both,187.0,5.784654290277482,0.0006088112951765686,0,71,[],0.017894929999783926,0.20697652999979255,['space'],561.8039928999999,561.8039928999999,0.20697652999979255,1.6782403387917586,562.0104805999999,561.8039928999999,,,,[-1.3341510000002472],,,,,,,cwzopc,001,english,0,2022-07-20_10h39.46.286,Continuous,2022.1.1,34.12413746977165,
13,0,13,0,6,0,6,0,,,,,,,,1.471263808791966,both,125.0,7.0,0.0016179682846481417,0,72,[],0.013229029999820341,None,['space'],563.4795975,563.4795975,0.2252543299998706,1.6965181387918367,563.7100859,563.4795975,,,,[-1.282643300000018],,,,,,,cwzopc,001,english,0,2022-07-20_10h39.46.286,Continuous,2022.1.1,34.12413746977165,
13,0,13,0,7,0,7,0,,,,,,,,1.471263808791966,both,,,,1,72,[],0.013416830000323898,None,['space'],565.177318,565.177318,0.23122793000038655,1.7024917387923526,565.4105001999999,565.177318,,,,[-1.3323445000000902],,,,,,,cwzopc,001,english,0,2022-07-20_10h39.46.286,Continuous,2022.1.1,34.12413746977165,
14,0,14,0,0,0,0,0,,,,,0.16666666666666666,572.2540899999999,None,1.7025517579143683,both,4593.0,-0.9951886143426416,0.00011123809057700074,0,73,[],0.025413830000161397,None,['space'],573.2768985,None,0.22140282999998817,1.9239545879143565,573.4868254999999,None,566.8783249999999,None,,[-1.9350626000000375],,,,,,,cwzopc,001,english,0,2022-07-20_10h39.46.286,Continuous,2022.1.1,34.12413746977165,
14,0,14,0,1,0,1,0,,,,,,,,1.7025517579143683,both,4092.0,-1.8811381844154953,7.269225925219377e-05,0,74,[],0.012856029999966267,None,['space'],575.1899231,575.1899231,0.22736413000006905,1.9299158879144374,575.4194050000001,575.1899231,,,,[-1.401461000000154],,,,,,,cwzopc,001,english,0,2022-07-20_10h39.46.286,Continuous,2022.1.1,34.12413746977165,
14,0,14,0,2,0,2,0,,,,,,,,1.7025517579143683,both,,,,1,74,[],0.017485129999840865,0.2089284299997871,['space'],577.1226916999999,577.1226916999999,0.2089284299997871,1.9114801879141554,577.3264058,577.1226916999999,,,,[-1.5658505999999761],,,,,,,cwzopc,001,english,0,2022-07-20_10h39.46.286,Continuous,2022.1.1,34.12413746977165,
14,0,14,0,3,0,3,0,,,,,,,,1.7025517579143683,both,3248.0,-2.001647084409328,5.617974010477283e-05,0,75,[],0.010740630000100282,None,None,579.0320872,579.0320872,0.21487633000015194,1.9174280879145202,579.2517177,579.0320872,,,,,,,,,,,cwzopc,001,english,0,2022-07-20_10h39.46.286,Continuous,2022.1.1,34.12413746977165,
14,0,14,0,4,0,4,0,,,,,,,,1.7025517579143683,both,2894.0,-1.8020998072064436,4.990472570182141e-05,0,76,[],0.014985030000161714,0.21302653000020655,['space'],580.960323,580.960323,0.21302653000020655,1.9155782879145749,581.1784385999999,580.960323,,,,[-1.2431931000000986],,,,,,,cwzopc,001,english,0,2022-07-20_10h39.46.286,Continuous,2022.1.1,34.12413746977165,
14,0,14,0,5,0,5,0,,,,,,,,1.7025517579143683,both,2578.0,-1.5974743227798291,6.743261475655187e-05,0,77,[],0.013287829999853784,0.2039107299999614,['space'],582.8826692,582.8826692,0.2039107299999614,1.9064624879143297,583.0952463000001,582.8826692,,,,[-0.4695979000000534],,,,,,,cwzopc,001,english,0,2022-07-20_10h39.46.286,Continuous,2022.1.1,34.12413746977165,
14,0,14,0,6,0,6,0,,,,,,,,1.7025517579143683,both,2297.0,-2.0,6.465471437366255e-05,0,78,[],0.01237083000023631,0.19837633000020105,None,584.7994853,584.7994853,0.19837633000020105,1.9009280879145694,585.0005599000001,584.7994853,,,,,,,,,,,cwzopc,001,english,0,2022-07-20_10h39.46.286,Continuous,2022.1.1,34.12413746977165,
14,0,14,0,7,0,7,0,,,,,,,,1.7025517579143683,both,2046.0,1.2637843320656812,8.770790422752873e-05,0,79,[],0.009277730000121664,0.1902321300001404,None,586.7108410999999,586.7108410999999,0.1902321300001404,1.8927838879145087,586.9088268,586.7108410999999,,,,,,,,,,,cwzopc,001,english,0,2022-07-20_10h39.46.286,Continuous,2022.1.1,34.12413746977165,
14,0,14,0,8,0,8,0,,,,,,,,1.7025517579143683,both,1823.0,-0.39163963276959013,6.387375243387504e-05,0,80,[],0.012398829999938243,0.19552363000002515,None,588.6211536999999,588.6211536999999,0.19552363000002515,1.8980753879143935,588.8211758,588.6211536999999,,,,,,,,,,,cwzopc,001,english,0,2022-07-20_10h39.46.286,Continuous,2022.1.1,34.12413746977165,
14,0,14,0,9,0,9,0,,,,,,,,1.7025517579143683,both,1624.0,2.860375662868363,8.039029652511874e-05,0,81,[],0.008911330000046291,None,None,590.5324702,590.5324702,0.21887873000014224,1.9214304879145105,590.7556318,590.5324702,,,,,,,,,,,cwzopc,001,english,0,2022-07-20_10h39.46.286,Continuous,2022.1.1,34.12413746977165,
14,0,14,0,10,0,10,0,,,,,,,,1.7025517579143683,both,1447.0,1.8195498983537561,6.118146934524044e-05,0,82,[],0.01285903000007238,None,None,592.4616596999999,592.4616596999999,0.20983543000011196,1.9123871879144803,592.6774207999999,592.4616596999999,,,,,,,,,,,cwzopc,001,english,0,2022-07-20_10h39.46.286,Continuous,2022.1.1,34.12413746977165,
14,0,14,0,11,0,11,0,,,,,,,,1.7025517579143683,both,1289.0,3.7655698935448605,8.25971059217803e-05,0,83,[],0.016741930000307548,0.2055531300002258,None,594.3910971999999,594.3910971999999,0.2055531300002258,1.908104887914594,594.5946606,594.3910971999999,,,,,,,,,,,cwzopc,001,english,0,2022-07-20_10h39.46.286,Continuous,2022.1.1,34.12413746977165,
14,0,14,0,12,0,12,0,,,,,,,,1.7025517579143683,both,1148.0,4.240078251711907,8.186122667123676e-05,0,84,[],0.010816630000135774,None,None,596.3025266,596.3025266,0.22152253000012934,1.9240742879144976,596.5294156,596.3025266,,,,,,,,,,,cwzopc,001,english,0,2022-07-20_10h39.46.286,Continuous,2022.1.1,34.12413746977165,
14,0,14,0,13,0,13,0,,,,,,,,1.7025517579143683,both,1023.0,1.8964351773950667,5.599817531563517e-05,0,85,['both'],0.016489130000081786,0.20623943000009604,None,598.2304846,598.2304846,0.20623943000009604,1.9087911879144643,598.4323924,598.2304846,,,,,"{'estimation': [[125.0, 3.8690930247903683], [127.07829665706267, 4.0], [133.9716828170366, 4.409330805814824], [143.5872943746293, 4.8399413484718306], [152.5764930026079, 5.0], [153.89305166811442, 5.022877391853111], [155.4260507125511, 5.0], [164.9384888466117, 4.866507508889055], [176.77669529663666, 4.373739103515792], [183.06237020975468, 4.0], [189.46457081379947, 3.644177585461085], [200.7388229918408, 3.0], [203.0630990890585, 2.8731201830182127], [217.6376408240306, 2.292935183228131], [233.25824788420132, 2.101907359527989], [249.99999999999937, 2.401372380133849], [264.3042297016008, 3.0], [267.94336563407256, 3.1455024903189743], [284.5010740033827, 4.0], [287.1745887492579, 4.133067188927595], [306.43711668531597, 5.0], [307.78610333622805, 5.0595707193667945], [329.87697769322244, 5.603340670826269], [353.55339059327247, 5.528466845010635], [370.9221062301006, 5.0], [378.929141627598, 4.765690249853516], [394.49665856099017, 4.0], [406.12619817811606, 3.4547774285262616], [414.45939781339007, 3.0], [433.3465337353782, 2.0], [435.2752816480601, 1.9020990636472586], [455.20437619559607, 1.0], [466.5164957684015, 0.5055771004035409], [485.5782051402051, 0.0], [499.9999999999975, -0.3737070292482704], [535.8867312681438, -0.5118084984401843], [567.2230761471963, 0.0], [574.3491774985143, 0.1118036472310574], [604.2251123933243, 1.0], [615.5722066724546, 1.321339585128641], [635.1951892557372, 2.0], [659.7539553864432, 2.816107254528425], [665.5973400841265, 3.0], [697.7786874670683, 4.0], [707.1067811865431, 4.279631362615857], [737.6389254302248, 5.0], [757.8582832551941, 5.466576729293561], [793.0446115796103, 6.0], [812.2523963562301, 6.286529305697723], [870.5505632961181, 6.795541761978945], [905.4082344176586, 7.0], [933.0329915368008, 7.1593434801102855], [999.9999999999926, 7.550118468483148], [1060.8495534268498, 8.0], [1071.773462536285, 8.07938721483277], [1148.698354997026, 8.730168962491774], [1182.9513985854664, 9.0], [1231.1444133449063, 9.362536321263462], [1319.5079107728832, 9.745496845250312], [1414.2135623730828, 9.652373513732973], [1505.4909838655137, 9.000000000000002], [1515.7165665103846, 8.928926475224246], [1589.2948117559813, 8.0], [1624.5047927124563, 7.561119281765434], [1659.6999634177714, 7.0], [1721.4281708537078, 6.0], [1741.1011265922318, 5.686965022700573], [1781.8838640613892, 5.0], [1840.282244797545, 4.0], [1866.065983073597, 3.5689496909252756], [1903.3496758058857, 3.0], [1968.2520347124016, 2.0], [1999.9999999999827, 1.5237653957640802], [2044.3894576345267, 1.0], [2130.084285680199, 0.0], [2143.5469250725646, -0.15343130264313878], [2260.6547892433105, -1.0], [2297.396709994049, -1.2576795108808028], [2462.2888266898062, -1.704836339705762], [2639.01582154576, -1.5390738423402097], [2794.1691965206833, -1.0], [2828.427124746159, -0.8908683588200239], [3019.1666339241265, 0.0], [3031.4331330207615, 0.05243103778706815], [3226.841703061423, 1.0], [3249.0095854249043, 1.0996135760687933], [3463.097437285268, 2.0], [3482.2022531844555, 2.076381468236155], [3732.13196614718, 2.8393228199382006], [3826.066219281831, 3.0], [3999.9999999999554, 3.288805927502458], [4287.093850145118, 3.3606634009005103], [4594.793419988081, 3.05429957267884], [4622.738328310967, 3.0], [4924.577653379601, 2.4379626508993333], [5119.167770814204, 2.0], [5278.031643091513, 1.65151854799293], [5604.762420628772, 1.0], [5656.854249492303, 0.8973927148663495], [6062.866266041508, 0.39599193852763237], [6498.019170849792, 0.33834991876378495], [6964.404506368894, 0.8331030972787343], [7043.663764520309, 1.0], [7464.2639322943505, 1.877473970789547], [7510.49519582556, 2.0], [7875.522081695352, 3.0], [7999.999999999872, 3.349915577118992]], 'plus_line': [[124.99999999999991, -0.9430805719743435], [133.9716828170366, -0.28265684724699436], [140.39613714511998, 0.0], [143.5872943746293, 0.12812615234546365], [153.89305166811442, 0.3048407856897466], [164.93848884661162, 0.2462364523855699], [173.54163959467618, 0.0], [176.77669529663666, -0.09313897908552697], [189.46457081379947, -0.7088524755415067], [194.78830697126796, -1.0], [203.0630990890585, -1.4488527168934193], [216.73523190681897, -2.0], [217.6376408240306, -2.037427934759113], [233.25824788420132, -2.239802322721047], [244.05940789175918, -2.0], [249.99999999999937, -1.8829295176650955], [267.94336563407256, -1.063079309218081], [269.0736674907857, -1.0], [287.1745887492579, -0.035683010855509165], [287.95829918496116, 0.0], [307.78610333622805, 0.8585128810244593], [313.9123601106473, 1.0], [329.87697769322244, 1.3381773452021526], [353.55339059327247, 1.2276463877485757], [361.10896924224426, 1.0], [378.929141627598, 0.46751013270260866], [388.4559062113597, 0.0], [406.12619817811606, -0.8145137926565913], [409.45058942559456, -1.0], [427.7446480187897, -2.0], [435.2752816480601, -2.380229495458117], [448.2035303988401, -3.0], [466.5164957684015, -3.8219910897934612], [472.8127885319636, -4.0], [499.9999999999975, -4.758997278985417], [535.8867312681438, -4.897585052885631], [574.3491774985143, -4.218478722690431], [581.041657117783, -4.0], [612.5378847649093, -3.0], [615.5722066724546, -2.908731171958888], [641.4457615490336, -2.0], [659.7539553864432, -1.3574885312531235], [671.3144981034512, -1.0], [703.2700747145369, 0.0], [707.1067811865431, 0.11570451364256784], [746.5091451669308, 1.0], [757.8582832551941, 1.2510038754202915], [811.2868166060231, 2.0], [812.2523963562301, 2.0130331128686105], [870.5505632961181, 2.443567051765701], [933.0329915368008, 2.7348835072026167], [987.3770851595433, 3.0], [999.9999999999926, 3.0568018340090237], [1071.773462536285, 3.513158248768388], [1128.5423870171712, 4.0], [1148.698354997026, 4.16186030582277], [1231.1444133449077, 4.849822339189442], [1256.8005421108164, 5.0], [1319.5079107728832, 5.327267409827122], [1414.2135623730828, 5.300496670301275], [1454.4685516618767, 5.0], [1515.7165665103846, 4.541344355557829], [1553.7779589961192, 4.0], [1624.5047927124563, 3.03676127330323], [1626.5398770496843, 3.0], [1679.5704592525356, 2.0], [1737.330350013047, 1.0], [1741.1011265922318, 0.9364280865660579], [1788.209351220016, 0.0], [1841.5130799244714, -1.0], [1866.065983073597, -1.4300307249386996], [1898.6397662442678, -2.0], [1956.9378449080748, -2.9999999999999996], [1999.9999999999802, -3.6774523265909433], [2024.636791540571, -4.0], [2102.3082939257174, -5.0], [2143.5469250725646, -5.496236547799369], [2209.4809913408553, -6.0], [2297.396709994046, -6.646287137748278], [2455.5296397479474, -7.0], [2462.2888266898035, -7.01541888301499], [2469.1198010145345, -7.0], [2639.01582154576, -6.66813882624339], [2771.106215435622, -6.0], [2828.427124746159, -5.738651161322084], [2945.8119273121056, -5.0], [3031.4331330207615, -4.502451148493616], [3113.9075745308396, -4.0], [3249.0095854249043, -3.2241665631315257], [3294.6427539297783, -3.0000000000000004], [3482.2022531844596, -2.1294359040607205], [3521.001281116216, -2.0], [3732.1319661471844, -1.3476456007797613], [3934.5899253525486, -1.0], [3999.9999999999504, -0.8980316629701892], [4287.093850145118, -0.827538795096822], [4468.928138008351, -1.0], [4594.793419988076, -1.125131416872007], [4924.577653379601, -1.7593599154694344], [5024.469144657292, -2.0], [5278.031643091506, -2.6127645541304245], [5449.790230914912, -3.0], [5656.854249492303, -3.4731518990301855], [6018.062149514453, -4.0], [6062.866266041501, -4.0684584218743955], [6498.019170849792, -4.196794243439959], [6686.527913116601, -4.0], [6964.404506368894, -3.7354111484425596], [7345.484262303665, -3.0], [7464.2639322943505, -2.7765973224761327], [7816.842416699991, -2.0], [7999.999999999882, -1.5834810764326634]], 'minus_line': [[125.0, 8.692330973047289], [131.0505918112381, 9.0], [133.9716828170366, 9.150487848081088], [143.5872943746293, 9.66216233511122], [153.89305166811442, 9.871261352958642], [164.9384888466117, 9.631223929193258], [175.84425787695912, 9.000000000000002], [176.77669529663677, 8.951426049819089], [189.46457081379947, 8.058413335463422], [190.32451055191814, 8.0], [203.0630990890585, 7.201961969008863], [207.5843218102335, 7.0], [217.6376408240306, 6.591491204602761], [233.25824788420132, 6.374002946843193], [249.99999999999937, 6.623892724431067], [259.5983474883013, 7.0], [267.94336563407256, 7.325002770089848], [280.8090423300529, 8.0], [287.1745887492579, 8.325679963186479], [300.9309452797233, 9.0], [307.78610333622805, 9.332508871390942], [329.876977693222, 9.960036178470386], [353.55339059327247, 9.927230450550603], [378.929141627598, 9.128961798056347], [381.3781882389502, 9.0], [400.7972609217727, 8.0], [406.12619817811606, 7.735322708578921], [419.4751252541961, 7.0], [435.2752816480601, 6.116014824759839], [437.8352410860006, 6.0], [460.0938551146295, 5.0], [466.5164957684015, 4.716842113247945], [494.4359061759338, 4.0], [499.9999999999975, 3.8631805718536016], [535.8867312681438, 3.7492655760125793], [551.5692666086863, 4.0], [574.3491774985143, 4.368156738797571], [595.6069066119109, 5.0], [615.5722066724546, 5.563744993099265], [627.812454349333, 6.0], [657.6334450471684, 7.0], [659.7539553864424, 7.068468378121127], [687.5742218046851, 8.0], [707.1067811865431, 8.603517079920818], [722.6060048125438, 9.0], [757.8582832551951, 9.866619513382275], [765.9332280394872, 10.0], [812.2523963562301, 10.759037652330795], [837.7237989869423, 11.0], [870.5505632961181, 11.317741153205784], [933.0329915368008, 11.715597239114143], [977.4059743634135, 12.0], [999.9999999999926, 12.150176858746118], [1071.773462536285, 12.724673662192602], [1103.8436980475446, 13.0], [1148.698354997026, 13.385973241375545], [1231.1444133449063, 13.953038913900729], [1245.2813388702414, 14.0], [1319.5079107728832, 14.251256613713451], [1414.2135623730828, 14.068970462212345], [1423.2359576155286, 14.0], [1515.7165665103846, 13.345559703081129], [1544.8777976842684, 13.0], [1624.5047927124563, 12.046042770255836], [1627.7056742857285, 12.0], [1696.3773297961661, 11.0], [1741.1011265922318, 10.31556854943776], [1762.077845835082, 10.0], [1825.4966515446704, 9.0], [1866.065983073597, 8.338845067964844], [1890.592027093528, 8.0], [1959.9577002186418, 7.0], [1999.9999999999802, 6.411743864499634], [2037.5090883624937, 6.0], [2126.1658215665557, 5.0], [2143.5469250725646, 4.807412709530084], [2257.805927480403, 4.0], [2297.396709994046, 3.727511326907635], [2462.2888266898062, 3.222880708935024], [2639.01582154576, 3.2424692501942607], [2828.427124746159, 3.6749499183266465], [2916.6623669535747, 4.0], [3031.4331330207615, 4.402402011123245], [3173.801960567685, 5.0], [3249.0095854249043, 5.301058487798658], [3422.357719249925, 6.0], [3482.2022531844555, 6.234987739894254], [3724.721146202964, 7.0], [3732.1319661471844, 7.023608412739947], [3999.999999999946, 7.529516088272737], [4287.093850145118, 7.611189198808968], [4594.793419988081, 7.279967438510868], [4731.109185696588, 7.0], [4924.577653379601, 6.636567564161556], [5206.115279507265, 6.0], [5278.0316430915, 5.847133585069754], [5656.854249492303, 5.130212161885038], [5766.548626887976, 5.0], [6062.866266041501, 4.6796042283323125], [6498.019170849792, 4.657938120530938], [6796.795519725931, 5.0], [6964.404506368894, 5.197284748106933], [7298.93064015922, 6.0], [7464.2639322943505, 6.389819196395743], [7641.91253102412, 7.0], [7931.5588918222675, 8.0], [7999.999999999882, 8.23282396661908]]}",,,,,,cwzopc,001,english,0,2022-07-20_10h39.46.286,Continuous,2022.1.1,34.12413746977165,
14,0,14,0,14,0,14,0,,,,,,,,1.7025517579143683,both,911.0,-1.657753495619017,3.430836296319785e-05,0,86,['both'],0.007093030000078215,0.18664532999991934,None,600.1453964,600.1453964,0.18664532999991934,1.8891970879142876,600.3497761000001,600.1453964,,,,,,,,,,,cwzopc,001,english,0,2022-07-20_10h39.46.286,Continuous,2022.1.1,34.12413746977165,
15,0,15,0,0,0,0,0,,,,,0.16666666666666666,618.6887939999999,None,2.76448332125457,frequency,8000.0,5.0,0.00032282711451732784,0,75,['both'],0.020593230000031326,None,None,619.704618,None,0.23624102999997376,3.0007243512545436,619.9362409999999,None,602.0550800999999,None,,,,,,,,,cwzopc,001,english,0,2022-07-20_10h39.46.286,Continuous,2022.1.1,34.12413746977165,
15,0,15,0,1,0,1,0,,,,,,,,2.8789878014271872,frequency,,,,1,75,['both'],0.0064250300001731375,0.19101273000023866,['space'],622.7050932,622.7050932,0.19101273000023866,3.070000531427426,622.9081596999999,622.7050932,,,,[-2.5000252000002092],,,,,,,cwzopc,001,english,0,2022-07-20_10h39.46.286,Continuous,2022.1.1,34.12413746977165,
15,0,15,0,2,0,2,0,,,,,,,,1.2468046996106037,frequency,6349.0,2.1790649653571617,0.00016898837236651427,0,76,['both'],0.011458729999731077,0.19328802999984873,None,625.7942682999999,625.7942682999999,0.19328802999984873,1.4400927296104524,625.9950942,625.7942682999999,,,,,,,,,,,cwzopc,001,english,0,2022-07-20_10h39.46.286,Continuous,2022.1.1,34.12413746977165,
15,0,15,0,3,0,3,0,,,,,,,,2.8885664726919216,frequency,5656.0,3.34874468478069,0.00018902830537025365,0,77,['both'],0.011602930000208289,None,['space'],627.2482568999999,627.2482568999999,0.2239294300002257,3.1124959026921473,627.4763869999999,627.2482568999999,,,,[-0.9383817999998882],,,,,,,cwzopc,001,english,0,2022-07-20_10h39.46.286,Continuous,2022.1.1,34.12413746977165,
15,0,15,0,4,0,4,0,,,,,,,,1.9803917714125254,frequency,5039.0,3.458410739142834,0.0002253108368294412,0,78,['both'],0.011733230000118056,0.19578753000018878,['space'],630.3667857,630.3667857,0.19578753000018878,2.176179301412714,630.5664741999999,630.3667857,,,,[-2.5060550000000603],,,,,,,cwzopc,001,english,0,2022-07-20_10h39.46.286,Continuous,2022.1.1,34.12413746977165,
15,0,15,0,5,0,5,0,,,,,,,,2.655271018913897,frequency,4489.0,-0.4492273475078796,0.00011165938311835476,0,79,['both'],0.011450030000332845,0.19521063000024697,['space'],632.5519783,632.5519783,0.19521063000024697,2.850481648914144,632.7531041,632.5519783,,,,[-1.5705818000001273],,,,,,,cwzopc,001,english,0,2022-07-20_10h39.46.286,Continuous,2022.1.1,34.12413746977165,
15,0,15,0,6,0,6,0,,,,,,,,1.7826255046041661,frequency,3999.0,-0.39958555233285753,8.014932973426034e-05,0,80,['both'],0.011300030000029437,None,['space'],635.4175660999999,635.4175660999999,0.22357953000005182,2.0062050346042177,635.6433219,635.4175660999999,,,,[-2.3809969999999794],,,,,,,cwzopc,001,english,0,2022-07-20_10h39.46.286,Continuous,2022.1.1,34.12413746977165,
15,0,15,0,7,0,7,0,,,,,,,,1.4376128061386837,frequency,3563.0,4.556278909763981,0.00012887311528611,0,81,['both'],0.01187602999993942,None,['space'],637.4236407000001,637.4236407000001,0.22496802999989995,1.6625808361385837,637.6559235,637.4236407000001,,,,[-1.403038400000014],,,,,,,cwzopc,001,english,0,2022-07-20_10h39.46.286,Continuous,2022.1.1,34.12413746977165,
15,0,15,0,8,0,8,0,,,,,,,,1.614299709760906,frequency,3174.0,-1.6992063732597493,5.7102167525578394e-05,0,82,['both'],0.011044830000173533,0.19693713000015123,['space'],639.0906405000001,639.0906405000001,0.19693713000015123,1.8112368397610572,639.2926811,639.0906405000001,,,,[-1.2059256000002279],,,,,,,cwzopc,001,english,0,2022-07-20_10h39.46.286,Continuous,2022.1.1,34.12413746977165,
16,0,16,0,0,0,0,0,,,,,0.5833333333333334,653.9858678999999,None,1.8035164232214629,frequency,5792.0,8.16471214060286,0.000316259245976536,0,83,['both'],0.025200029999723483,None,None,654.9981516,None,0.24936532999981864,2.0528817532212815,655.223362,None,640.9197979,None,,,,,,,,,cwzopc,001,english,0,2022-07-20_10h39.46.286,Continuous,2022.1.1,34.12413746977165,
16,0,16,0,1,0,1,0,,,,,,,,1.997838810902533,frequency,3866.0,-0.8699011385856437,7.38126792999765e-05,0,84,['both'],0.010005529999943974,0.1909100299999409,['space'],657.0267200999999,657.0267200999999,0.1909100299999409,2.188748840902474,657.2260835,657.0267200999999,,,,[-1.5336645000002136],,,,,,,cwzopc,001,english,0,2022-07-20_10h39.46.286,Continuous,2022.1.1,34.12413746977165,
16,0,16,0,2,0,2,0,,,,,,,,2.393430602700712,frequency,2580.0,7.099487792123549,0.0001832532189586563,0,85,"['both', 'frequency']",0.009512330000006841,0.19140933000016958,['space'],659.2289135999999,659.2289135999999,0.19140933000016958,2.5848399327008815,659.4346277,659.2289135999999,,,,[-0.9924356999999873],,"{'estimation': [[125.0, 2.915395926317661], [133.9716828170366, 2.2257805680214138], [136.8726873245386, 2.0], [143.5872943746293, 1.5144273079212607], [152.06327432205782, 1.0], [153.89305166811442, 0.8918067068399504], [164.93848884661162, 0.4675704929546781], [176.77669529663666, 0.3281064518388954], [189.46457081379947, 0.5174479577445814], [202.07715834504003, 1.0], [203.0630990890585, 1.0365264930494584], [217.6376408240306, 1.812081027681012], [220.71422892498578, 2.0], [233.25824788420132, 2.745410484695461], [237.7095419381446, 3.0], [249.99999999999952, 3.7002254426838306], [256.4188769491026, 4.0], [267.94336563407256, 4.54343987106394], [282.21362741219474, 5.0], [287.1745887492579, 5.161410384302522], [307.78610333622805, 5.477548373237524], [329.87697769322244, 5.468847323967898], [353.55339059327247, 5.158514712546618], [360.55893994601604, 5.0], [378.929141627598, 4.612335620893873], [403.4503056050885, 4.0], [406.12619817811606, 3.936175306325959], [435.2752816480601, 3.253219027430185], [448.4053219702003, 3.0], [466.5164957684015, 2.665683260654033], [499.9999999999975, 2.2743455518889393], [535.8867312681438, 2.1146023767840085], [574.3491774985143, 2.190638319268395], [615.5722066724546, 2.458571303808828], [659.7539553864432, 2.8569708192444634], [673.4915458861315, 3.0], [707.1067811865431, 3.3400319071950832], [757.8582832551941, 3.8616880661158577], [770.6481460972517, 4.0], [812.2523963562301, 4.439958483623282], [862.5725045747023, 5.0], [870.5505632961181, 5.088905818683044], [933.0329915368008, 5.8387653188138735], [945.5984901535478, 6.0], [999.9999999999926, 6.692042190467225], [1024.4276515239583, 7.0], [1071.773462536285, 7.589957236487794], [1109.530533722948, 8.0], [1148.698354997026, 8.417125760876216], [1230.1487885297813, 9.0], [1231.1444133449063, 9.007005923131393], [1319.5079107728848, 9.200865459421884], [1372.0041600126701, 9.0], [1414.2135623730846, 8.849853166464927], [1505.2426317432437, 8.0], [1515.7165665103846, 7.907483751914778], [1580.5809239374737, 7.0], [1624.5047927124563, 6.417506009962608], [1649.9504893729593, 6.0], [1709.8071828500126, 5.0], [1741.1011265922298, 4.514860927011607], [1771.8541611363303, 4.0], [1829.5661801964482, 3.0], [1866.065983073597, 2.4172145463548853], [1893.399039846078, 2.0], [1956.4507265917998, 1.0], [1999.9999999999802, 0.3594205652886031], [2028.571852484372, 0.0], [2106.5440071988587, -1.0], [2143.5469250725646, -1.4442931376559114], [2204.2058438527392, -2.0], [2297.396709994046, -2.827368987367752], [2328.3686368471162, -3.0], [2462.2888266898062, -3.71656772343774], [2589.2232515667706, -4.0], [2639.01582154576, -4.107440684225598], [2828.427124746159, -4.064871397715485], [2863.234768875574, -4.0], [3031.433133020758, -3.711092865087031], [3249.0095854249043, -3.20112591696528], [3333.822880825056, -3.0], [3482.2022531844555, -2.669673093085167], [3732.1319661471844, -2.246076472656232], [3971.207372924684, -2.0], [3999.9999999999504, -1.971184225625786], [4287.093850145118, -1.8364158998032845], [4594.793419988076, -1.748270132338381], [4924.577653379601, -1.5673012476649753], [5278.031643091513, -1.1443883256291016], [5346.358573245988, -1.0], [5656.854249492303, -0.3727255890392039], [5784.541126688115, 0.0], [6062.866266041516, 0.7797556697713909], [6126.187377473717, 1.0], [6418.100525613451, 2.0], [6498.019170849792, 2.256736456905341], [6704.025219891028, 3.0], [6964.4045063688845, 3.9073315028128284], [6992.847570777416, 4.0], [7291.963117550571, 5.0], [7464.2639322943505, 5.5560393762519364], [7633.345303886238, 6.0], [7998.180173576149, 7.0], [7999.999999999882, 7.005007567925238]], 'plus_line': [[125.0, 0.0013557897029226006], [125.02309202311642, 0.0], [133.9716828170366, -0.5048399818805914], [141.6004074575279, -1.0], [143.5872943746293, -1.1321906531894383], [153.89305166811442, -1.7588115630502446], [160.00744471776665, -2.0], [164.93848884661162, -2.2115291340647856], [176.77669529663666, -2.372638512346093], [189.46457081379947, -2.1632481569568407], [193.18428924840782, -2.0], [203.0630990890585, -1.6241107522905067], [214.0416883121453, -1.0], [217.6376408240306, -0.8109271306652176], [231.26657285099049, 0.0], [233.25824788420132, 0.11341825065767619], [249.9601336148914, 1.0], [249.99999999999937, 1.002069326752923], [267.94336563407256, 1.7102163075363537], [278.40357161780406, 2.0], [287.1745887492579, 2.2246575673270725], [307.78610333622805, 2.4743619253214106], [329.87697769322244, 2.47249330165699], [353.55339059327247, 2.2256477158372663], [365.60229838581614, 2.0], [378.929141627598, 1.7445942550320686], [406.12619817811606, 1.1296022414021745], [411.6930421192045, 1.0], [435.2752816480601, 0.4510571838656866], [460.20947759879823, 0.0], [466.5164957684015, -0.11927297577218038], [499.9999999999975, -0.5205106751162513], [535.8867312681438, -0.6670773210413573], [574.3491774985143, -0.5846084595025339], [615.5722066724546, -0.3104649088011888], [647.5302388451694, 0.0], [659.7539553864432, 0.105158236807678], [707.1067811865431, 0.5621745673821541], [748.5672567949509, 1.0], [757.8582832551941, 1.0893472793043886], [812.2523963562301, 1.6199601921443536], [847.4080341870189, 2.0], [870.5505632961181, 2.2315264570997977], [933.0329915368008, 2.9233832666045063], [939.3469764219722, 3.0], [999.9999999999926, 3.6938272483576835], [1025.4703645210682, 4.0], [1071.773462536285, 4.532081838186916], [1115.5696578755385, 5.0], [1148.698354997026, 5.335480747675927], [1231.1444133449063, 5.951281980219746], [1247.574562665405, 6.0], [1319.5079107728832, 6.182032980119607], [1379.9167871149164, 6.0], [1414.2135623730828, 5.890489658217956], [1515.7165665103846, 5.001919754246154], [1515.8530203665896, 5.0], [1585.6278155730688, 4.0], [1624.5047927124563, 3.5053709982229595], [1653.5648901220138, 3.0], [1712.867387921074, 2.0], [1741.1011265922298, 1.5865715771450715], [1773.181514375159, 1.0], [1829.1680944098418, 0.0], [1866.065983073597, -0.5544287807451217], [1892.800156277052, -1.0], [1952.487980144306, -2.0], [1999.9999999999802, -2.6653192698056944], [2024.729848884183, -3.0], [2099.0211658604744, -4.0], [2143.5469250725646, -4.519474634752062], [2193.743536540571, -5.0], [2297.396709994046, -5.9123445226284845], [2313.4933943263013, -6.0], [2462.2888266898062, -6.790152421119891], [2578.1197313925077, -7.0], [2639.015821545763, -7.117511268210979], [2794.1184857195503, -7.0], [2828.427124746159, -6.9789673274936534], [3031.4331330207615, -6.552404993094081], [3224.438026607438, -6.0], [3249.0095854249043, -5.937930845432141], [3482.2022531844555, -5.3731239017579], [3677.4853473246912, -5.0], [3732.1319661471844, -4.908442500795681], [3999.9999999999504, -4.674806177069353], [4287.093850145118, -4.6103850441286855], [4594.793419988081, -4.614305926706775], [4924.577653379601, -4.51969533832448], [5278.031643091506, -4.133216059323481], [5339.105350403441, -4.0], [5656.854249492303, -3.364640228405851], [5776.929122369948, -3.0], [6062.866266041501, -2.146480061268513], [6104.124128974666, -2.0], [6383.506743881884, -1.0], [6498.019170849792, -0.6005869214294594], [6666.806562497402, 0.0], [6928.809457417158, 1.0], [6964.404506368894, 1.1246865619504556], [7243.808403812051, 2.0], [7464.2639322943505, 2.7317260388956397], [7582.131301458341, 3.0], [7993.950448909807, 4.0], [7999.999999999882, 4.014670904693736]], 'minus_line': [[125.0, 5.893783079398156], [133.4509873647205, 5.0], [133.97168281703654, 4.951834910927261], [143.5872943746293, 4.1458806699609685], [145.7100423435925, 4.0], [153.89305166811442, 3.5048279679303267], [164.93848884661162, 3.0626887888878027], [169.65441925504118, 3.0], [176.77669529663666, 2.921534202828494], [182.33177569014646, 3.0], [189.46457081379947, 3.111618994171832], [203.0630990890585, 3.624265533432416], [210.07742280545455, 4.0], [217.6376408240306, 4.409296474605336], [227.02434355721974, 5.0], [233.25824788420132, 5.389972263484925], [242.8696537652299, 6.0], [249.99999999999937, 6.452231237950244], [260.06228772260215, 7.0], [267.94336563407256, 7.439600901330911], [282.66395281272554, 8.0], [287.1745887492579, 8.182760372929833], [307.78610333622805, 8.581940808781049], [329.87697769322244, 8.575205383741883], [353.55339059327247, 8.205573289567674], [361.39347305898656, 8.0], [378.929141627598, 7.595555870779698], [400.46324569744826, 7.0], [406.12619817811606, 6.85706710592583], [435.2752816480601, 6.151373716149669], [442.740119753025, 6.0], [466.5164957684015, 5.571164509705496], [499.9999999999975, 5.168761491926099], [534.0976110400874, 5.0], [535.8867312681438, 4.992547422508467], [540.0565315315608, 5.0], [574.3491774985143, 5.069361111290303], [615.5722066724546, 5.3524759751546185], [659.7539553864424, 5.752534649662342], [684.1496547030509, 6.0], [707.1067811865431, 6.247760727733932], [757.8582832551941, 6.791909984351873], [776.4617868731266, 7.0], [812.2523963562301, 7.4184511591922], [860.733813121991, 8.0], [870.5505632961181, 8.123487957470688], [933.0329915368008, 8.957658882228236], [936.0235121231169, 9.0], [999.9999999999926, 9.91109588481859], [1006.4857442523896, 10.0], [1071.773462536285, 10.891718975879606], [1081.272772015397, 11.0], [1148.698354997026, 11.766149566746037], [1182.1032607833465, 12.0], [1231.1444133449063, 12.352939269457735], [1319.5079107728832, 12.479115427342819], [1414.2135623730828, 12.01206471350701], [1415.3023684709644, 12.0], [1511.9762781037498, 11.0], [1515.7165665103846, 10.964033629707789], [1582.9996749811519, 10.0], [1624.5047927124563, 9.400110901762538], [1649.7448309568433, 9.0], [1707.885186603522, 8.0], [1741.1011265922318, 7.439472371353447], [1769.341823913635, 7.0], [1826.6722625181594, 6.0], [1866.065983073597, 5.313941558670456], [1888.489994489192, 5.0], [1953.1375184856731, 4.0], [1999.9999999999827, 3.255726972268055], [2021.8970420366354, 3.0], [2101.5586514919432, 2.0], [2143.5469250725646, 1.4715367745984231], [2197.009846999535, 1.0], [2297.396709994046, 0.08170092705748933], [2311.667705083916, 0.0], [2462.2888266898062, -0.8131269694643238], [2532.951680641374, -1.0], [2639.01582154576, -1.244797585418263], [2828.427124746159, -1.2642386471832405], [3028.01893606233, -1.0], [3031.4331330207615, -0.9951099994047591], [3249.0095854249043, -0.5233098146932], [3482.2022531844596, -0.06229974085835637], [3520.5901304457125, 0.0], [3732.1319661471844, 0.35815594608874457], [3999.9999999999504, 0.6302783287049318], [4287.093850145118, 0.7951733505666201], [4594.793419988076, 0.939234996132831], [4677.562598390452, 1.0], [4924.577653379601, 1.199490876950917], [5278.031643091506, 1.6685757227671725], [5437.24570365835, 2.0], [5656.854249492303, 2.4593645998232194], [5844.200801112424, 3.0], [6062.866266041508, 3.5984787791710353], [6177.5054110210185, 4.0], [6484.461555429652, 5.0], [6498.019170849792, 5.041674139693702], [6747.211311806768, 6.0], [6964.404506368894, 6.725206128036762], [7041.473486864792, 7.0], [7314.832377851588, 8.0], [7464.2639322943505, 8.48702260625921], [7625.121196780567, 9.0], [7939.289640699609, 10.0], [7999.999999999882, 10.185717815616638]]}",,,,,cwzopc,001,english,0,2022-07-20_10h39.46.286,Continuous,2022.1.1,34.12413746977165,
16,0,16,0,3,0,3,0,,,,,,,,1.1825790987496823,frequency,1722.0,7.905844780452096,0.00015470199406086144,0,86,"['both', 'frequency']",0.010009130000071309,None,['space'],661.8364395000001,661.8364395000001,0.22223772999996072,1.404816828749643,662.0637655999999,661.8364395000001,,,,[-2.166534800000136],,,,,,,cwzopc,001,english,0,2022-07-20_10h39.46.286,Continuous,2022.1.1,34.12413746977165,
16,0,16,0,4,0,4,0,,,,,,,,1.6266171849315927,frequency,1149.0,9.0,0.00014172149821194043,0,87,"['both', 'frequency']",0.01145232999988366,0.1989460299998882,None,663.2464981,663.2464981,0.1989460299998882,1.8255632149314809,663.4532016999999,663.2464981,,,,,,,,,,,cwzopc,001,english,0,2022-07-20_10h39.46.286,Continuous,2022.1.1,34.12413746977165,
16,0,16,0,5,0,5,0,,,,,,,,2.339390069875109,frequency,767.0,2.087961225827899,5.070240123995401e-05,0,88,"['both', 'frequency']",0.010423529999570746,None,['space'],665.0892421000001,665.0892421000001,0.2193705299996509,2.55876059987476,665.3130775,665.0892421000001,,,,[-1.3962480000002415],,,,,,,cwzopc,001,english,0,2022-07-20_10h39.46.286,Continuous,2022.1.1,34.12413746977165,
16,0,16,0,6,0,6,0,,,,,,,,2.509069587035309,frequency,512.0,8.350367967184292,0.00018195215996912457,0,89,"['both', 'frequency']",0.012386130000095363,0.2014859300002172,None,667.6529032000001,667.6529032000001,0.2014859300002172,2.710555517035526,667.8550382999999,667.6529032000001,,,,,,,,,,,cwzopc,001,english,0,2022-07-20_10h39.46.286,Continuous,2022.1.1,34.12413746977165,
16,0,16,0,7,0,7,0,,,,,,,,1.9706579030487537,frequency,342.0,4.533348103360642,0.00015438969880902128,0,90,"['both', 'frequency']",0.008557529999961844,0.18863762999990286,None,670.3751672000001,670.3751672000001,0.18863762999990286,2.1592955330486565,670.5771012,670.3751672000001,,,,,,,,,,,cwzopc,001,english,0,2022-07-20_10h39.46.286,Continuous,2022.1.1,34.12413746977165,
16,0,16,0,8,0,8,0,,,,,,,,1.1166031018226226,frequency,228.0,4.58374158583893,0.00035695568870774497,0,91,"['both', 'frequency']",0.013541930000201319,0.20217233000016677,['space'],672.5562517000001,672.5562517000001,0.20217233000016677,1.3187754318227893,672.7588334,672.5562517000001,,,,[-1.3985752000000957],,,,,,,cwzopc,001,english,0,2022-07-20_10h39.46.286,Continuous,2022.1.1,34.12413746977165,
16,0,16,0,9,0,9,0,,,,,,,,2.568361454427258,frequency,152.0,7.402300568660052,0.0011310238856810197,0,92,"['both', 'frequency']",0.009458430000222506,0.1891686300002675,['space'],673.8833351999999,673.8833351999999,0.1891686300002675,2.7575300844275255,674.0832020999999,673.8833351999999,,,,[-0.966596299999992],,,,,,,cwzopc,001,english,0,2022-07-20_10h39.46.286,Continuous,2022.1.1,34.12413746977165,
16,0,16,0,10,0,10,0,,,,,,,,2.214331856836338,frequency,,,,1,92,"['both', 'frequency']",0.013271030000169048,0.2017694300002404,['space'],676.6608919999999,676.6608919999999,0.2017694300002404,2.4161012868365783,676.8640264000001,676.6608919999999,,,,[-2.2710150000002614],,,,,,,cwzopc,001,english,0,2022-07-20_10h39.46.286,Continuous,2022.1.1,34.12413746977165,
17,0,17,0,0,0,0,0,,,,,,690.5157065999999,None,2.929583478018434,none,2997.0,-1.68938782897398,4.5287143549613164e-05,0,52,"['both', 'frequency']",0.025781929999993736,None,None,691.5267015,None,0.26037302999998246,3.1899565080184167,691.7624831,None,679.0831522999999,None,"[0.3333333333333333, 0.5833333333333334, 0.3333333333333333, 0.16666666666666666, 0.16666666666666666, 0.16666666666666666, 0.3333333333333333, 0.16666666666666666, 0.5833333333333334, 0.16666666666666666, 0.16666666666666666, 0.16666666666666666, 0.5833333333333334, 0.16666666666666666, 0.5833333333333334]",,,,,,,,cwzopc,001,english,0,2022-07-20_10h39.46.286,Continuous,2022.1.1,34.12413746977165,
17,0,17,0,1,0,1,0,,,,,,,,2.1975193842487792,none,8000.0,-1.0,0.00016179682846481421,0,53,"['both', 'frequency']",0.007406329999867012,0.1869097299997975,['space'],694.6931205000001,694.6931205000001,0.1869097299997975,2.3844291142485767,694.8886943,694.6931205000001,,,,[-2.66398560000016],,,,,,,cwzopc,001,english,0,2022-07-20_10h39.46.286,Continuous,2022.1.1,34.12413746977165,
17,0,17,0,2,0,2,0,,,,,,,,2.231759953586775,none,5339.0,-0.6559197261434909,0.00013004430712035433,0,54,"['both', 'frequency']",0.01359563000005437,0.20171253000012257,['space'],697.0984721,697.0984721,0.20171253000012257,2.4334724835868977,697.3034313,697.0984721,,,,[-1.9973022000001492],,,,,,,cwzopc,001,english,0,2022-07-20_10h39.46.286,Continuous,2022.1.1,34.12413746977165,
17,0,17,0,3,0,3,0,,,,,,,,2.0519536741446993,none,3776.0,-1.658913987974555,6.609797566971202e-05,0,55,"['both', 'frequency']",0.0077160299999832205,0.18909232999999404,['space'],699.5472339999999,699.5472339999999,0.18909232999999404,2.2410460041446933,699.7490855000001,699.5472339999999,,,,[-1.9427123000002666],,,,,,,cwzopc,001,english,0,2022-07-20_10h39.46.286,Continuous,2022.1.1,34.12413746977165,
17,0,17,0,4,0,4,0,,,,,,,,2.6615528413630374,none,1414.0,5.702636434324344,9.72493253883933e-05,0,56,"['both', 'frequency']",0.009689230000049065,0.19204553000008673,['space'],701.8079634000001,701.8079634000001,0.19204553000008673,2.853598371363124,702.0098513999999,701.8079634000001,,,,[-1.7548658000000614],,,,,,,cwzopc,001,english,0,2022-07-20_10h39.46.286,Continuous,2022.1.1,34.12413746977165,
17,0,17,0,5,0,5,0,,,,,,,,2.241143897872532,none,2670.0,-1.191032804299752,6.567842114386066e-05,0,57,"['both', 'frequency']",0.007299630000034085,None,['space'],704.6855403,704.6855403,0.2009418300001471,2.442085727872679,704.8991908999999,704.6855403,,,,[-2.313178900000139],,,,,,,cwzopc,001,english,0,2022-07-20_10h39.46.286,Continuous,2022.1.1,34.12413746977165,
17,0,17,0,6,0,6,0,,,,,,,,1.9810640324700712,none,4757.0,-0.8316950271905101,0.00012360553529202676,0,58,"['both', 'frequency']",0.006626829999959227,None,None,707.1554257999999,707.1554257999999,0.20388613000000078,2.184950162470072,707.3695491999999,707.1554257999999,,,,,,,,,,,cwzopc,001,english,0,2022-07-20_10h39.46.286,Continuous,2022.1.1,34.12413746977165,
17,0,17,0,7,0,7,0,,,,,,,,1.504361101120604,none,3364.0,-1.6119063675910161,6.0449347575038246e-05,0,59,"['both', 'frequency']",0.009959429999980784,0.19852552999986983,['space'],709.3628535999999,709.3628535999999,0.19852552999986983,1.7028866311204738,709.5684709,709.3628535999999,,,,[-1.765169300000025],,,,,,,cwzopc,001,english,0,2022-07-20_10h39.46.286,Continuous,2022.1.1,34.12413746977165,
17,0,17,0,8,0,8,0,,,,,,,,1.7459083230689403,none,,,,1,59,"['both', 'frequency']",0.009198729999752686,0.1942720299996381,['space'],711.0836775,711.0836775,0.1942720299996381,1.9401803530685784,711.289209,711.0836775,,,,[-0.9590343000002122],,,,,,,cwzopc,001,english,0,2022-07-20_10h39.46.286,Continuous,2022.1.1,34.12413746977165,
18,0,18,0,0,0,0,0,,,,,,720.1724311,None,2.8287262754530977,time,2929.0,1.8204611789029244,7.304815542354155e-05,0,36,"['both', 'frequency']",0.0256776300002457,None,None,721.1937971,None,0.22069403000023158,3.0494203054533293,721.4012410999999,None,713.0468573999999,None,"[0.3333333333333333, 0.16666666666666666, 0.16666666666666666, 0.5833333333333334, 0.3333333333333333, 0.5833333333333334, 0.5833333333333334, 0.5833333333333334, 0.16666666666666666, 0.5833333333333334, 0.16666666666666666, 0.16666666666666666, 0.3333333333333333, 0.5833333333333334, 0.3333333333333333]",,,,,,,,cwzopc,001,english,0,2022-07-20_10h39.46.286,Continuous,2022.1.1,34.12413746977165,
18,0,18,0,1,0,1,0,,,,,,,,2.8287262754530977,time,4925.0,3.0,0.00020847022442907278,0,37,"['both', 'frequency']",0.008657329999778085,0.18787382999994406,['space'],724.2374516,724.2374516,0.18787382999994406,3.016600105453042,724.4393167999999,724.2374516,,,,[-2.1124608000002354],,,,,,,cwzopc,001,english,0,2022-07-20_10h39.46.286,Continuous,2022.1.1,34.12413746977165,
18,0,18,0,2,0,2,0,,,,,,,,2.8287262754530977,time,1955.0,3.81207605270768,0.00011287953607919213,0,38,"['both', 'frequency']",0.0025413299997580907,None,['space'],727.2916404,727.2916404,0.20589662999987013,3.034622905452968,727.5090636,727.2916404,,,,[-2.4140783000000283],,,,,,,cwzopc,001,english,0,2022-07-20_10h39.46.286,Continuous,2022.1.1,34.12413746977165,
18,0,18,0,3,0,3,0,,,,,,,,2.8287262754530977,time,,,,1,38,"['both', 'frequency']",0.008608530000174142,0.19239783000011812,None,730.3466799,730.3466799,0.19239783000011812,3.021124105453216,730.5536196,730.3466799,,,,,,,,,,,cwzopc,001,english,0,2022-07-20_10h39.46.286,Continuous,2022.1.1,34.12413746977165,
18,0,18,0,4,0,4,0,,,,,,,,2.8287262754530977,time,616.0,2.5074001632409884,7.120221126491229e-05,0,39,"['both', 'frequency']",0.011312229999930423,0.1979827299999215,['space'],733.3886247999999,733.3886247999999,0.1979827299999215,3.0267090054530192,733.5908362,733.3886247999999,,,,[0.08156309999981204],,,,,,,cwzopc,001,english,0,2022-07-20_10h39.46.286,Continuous,2022.1.1,34.12413746977165,
18,0,18,0,5,0,5,0,,,,,,,,2.8287262754530977,time,1305.0,6.643229699684085,0.00011418622652864114,0,40,"['both', 'frequency']",0.007870130000128484,0.19248403000005965,None,736.4264837999999,736.4264837999999,0.19248403000005965,3.0212103054531574,736.6276186,736.4264837999999,,,,,,,,,,,cwzopc,001,english,0,2022-07-20_10h39.46.286,Continuous,2022.1.1,34.12413746977165,
18,0,18,0,6,0,6,0,,,,,,,,2.8287262754530977,time,1036.0,3.3701079954867743,6.715404050411676e-05,0,41,"['both', 'frequency']",0.009316430000126275,0.19097503000011784,['space'],739.4651570000001,739.4651570000001,0.19097503000011784,3.0197013054532156,739.6650692000001,739.4651570000001,,,,[-1.804129600000124],,,,,,,cwzopc,001,english,0,2022-07-20_10h39.46.286,Continuous,2022.1.1,34.12413746977165,
18,0,18,0,7,0,7,0,,,,,,,,2.8287262754530977,time,691.0,0.1733034060651345,4.673869752140906e-05,0,42,"['both', 'frequency']",0.008391829999936817,0.18802262999997765,['space'],742.5058609,742.5058609,0.18802262999997765,3.0167489054530754,742.7048895999999,742.5058609,,,,[-2.4686249000001226],,,,,,,cwzopc,001,english,0,2022-07-20_10h39.46.286,Continuous,2022.1.1,34.12413746977165,
18,0,18,0,8,0,8,0,,,,,,,,2.8287262754530977,time,549.0,0.09815070456388553,6.452571726402995e-05,0,43,"['both', 'frequency']",0.005895330000385002,0.18725673000017196,None,745.5482416,745.5482416,0.18725673000017196,3.0159830054532697,745.7526402999999,745.5482416,,,,,,,,,,,cwzopc,001,english,0,2022-07-20_10h39.46.286,Continuous,2022.1.1,34.12413746977165,
18,0,18,0,9,0,9,0,,,,,,,,2.8287262754530977,time,7379.0,2.866666999418765,0.00022633985979601888,0,44,"['both', 'frequency']",0.010690529999919818,0.1984766299999592,None,748.5871843,748.5871843,0.1984766299999592,3.027202905453057,748.7895748999999,748.5871843,,,,,,,,,,,cwzopc,001,english,0,2022-07-20_10h39.46.286,Continuous,2022.1.1,34.12413746977165,
19,0,19,0,0,0,0,0,,,,,,759.6625412999999,None,1.1279005014023182,time,529.0,2.7859334596684286,9.222678397198723e-05,0,45,"['both', 'frequency']",0.02458142999989832,None,None,760.6808302,None,0.21802012999978615,1.3459206314021044,760.886158,None,751.6283713,None,"[0.16666666666666666, 0.3333333333333333, 0.5833333333333334, 0.3333333333333333, 0.16666666666666666, 0.5833333333333334, 0.16666666666666666, 0.3333333333333333, 0.3333333333333333, 0.5833333333333334, 0.16666666666666666, 0.16666666666666666, 0.3333333333333333, 0.16666666666666666, 0.16666666666666666]",,,,,,,,cwzopc,001,english,0,2022-07-20_10h39.46.286,Continuous,2022.1.1,34.12413746977165,
19,0,19,0,1,0,1,0,,,,,,,,1.1279005014023182,time,471.0,1.534675751362372,8.702002034024372e-05,0,46,"['both', 'frequency']",0.007089129999940269,0.18775272999982917,None,762.0258378000001,762.0258378000001,0.18775272999982917,1.3156532314021474,762.2253731999999,762.0258378000001,,,,,,,,,,,cwzopc,001,english,0,2022-07-20_10h39.46.286,Continuous,2022.1.1,34.12413746977165,
19,0,19,0,2,0,2,0,,,,,,,,1.1279005014023182,time,140.0,5.393228162058983,0.001096245108216841,0,47,"['both', 'frequency']",0.007034129999965444,0.18560533000004398,None,763.3656177,763.3656177,0.18560533000004398,1.3135058314023622,763.5644299999999,763.3656177,,,,,,,,,,,cwzopc,001,english,0,2022-07-20_10h39.46.286,Continuous,2022.1.1,34.12413746977165,
19,0,19,0,3,0,3,0,,,,,,,,1.1279005014023182,time,177.0,6.0,0.0006967609763950413,0,48,"['both', 'frequency']",0.009720429999788394,0.1962005299997145,['space'],764.7045857999999,764.7045857999999,0.1962005299997145,1.3241010314020327,764.9154524,764.7045857999999,,,,[-0.4753021000001354],,,,,,,cwzopc,001,english,0,2022-07-20_10h39.46.286,Continuous,2022.1.1,34.12413746977165,
19,0,19,0,4,0,4,0,,,,,,,,1.1279005014023182,time,,,,1,48,"['both', 'frequency']",0.00884432999987439,0.19147722999991856,['space'],766.0449687,766.0449687,0.19147722999991856,1.3193777314022368,766.2452245,766.0449687,,,,[-0.6725857999999789],,,,,,,cwzopc,001,english,0,2022-07-20_10h39.46.286,Continuous,2022.1.1,34.12413746977165,
19,0,19,0,5,0,5,0,,,,,,,,1.1279005014023182,time,297.0,3.662047247243238,0.00017940880918417126,0,49,"['both', 'frequency']",0.00888872999985324,0.1912415299998429,None,767.3839636,767.3839636,0.1912415299998429,1.3191420314021611,767.5847925,767.3839636,,,,,,,,,,,cwzopc,001,english,0,2022-07-20_10h39.46.286,Continuous,2022.1.1,34.12413746977165,
19,0,19,0,6,0,6,0,,,,,,,,1.1279005014023182,time,265.0,4.297836193210089,0.00024863765650836705,0,50,"['both', 'frequency']",0.010280830000056085,0.19736912999997003,None,768.7262169999999,768.7262169999999,0.19736912999997003,1.3252696314022883,768.9280530999999,768.7262169999999,,,,,,,,,,,cwzopc,001,english,0,2022-07-20_10h39.46.286,Continuous,2022.1.1,34.12413746977165,
19,0,19,0,7,0,7,0,,,,,,,,1.1279005014023182,time,333.0,5.9617057403094105,0.00018662663926926663,0,51,"['both', 'frequency']",0.0077055300002939475,0.18733063000036054,['space'],770.0655850999999,770.0655850999999,0.18733063000036054,1.3152311314026788,770.2654018000001,770.0655850999999,,,,[-0.7962615000001279],,,,,,,cwzopc,001,english,0,2022-07-20_10h39.46.286,Continuous,2022.1.1,34.12413746977165,
20,0,20,0,0,0,0,0,,,,,,780.6168895000001,None,2.9513439955546836,time,7551.0,2.584079048174163,0.0002261148336547176,0,52,"['both', 'frequency']",0.024694230000250172,None,None,781.6367106,None,0.2490415300001132,3.200385525554797,781.8609271,None,771.4108177999999,None,"[0.3333333333333333, 0.5833333333333334, 0.3333333333333333, 0.5833333333333334, 0.5833333333333334, 0.16666666666666666, 0.16666666666666666, 0.3333333333333333, 0.3333333333333333, 0.5833333333333334, 0.16666666666666666, 0.16666666666666666, 0.3333333333333333, 0.5833333333333334, 0.3333333333333333]",,,,,,,,cwzopc,001,english,0,2022-07-20_10h39.46.286,Continuous,2022.1.1,34.12413746977165,
20,0,20,0,1,0,1,0,,,,,,,,2.9513439955546836,time,2245.0,1.9032886576453905,9.990111064681237e-05,0,53,"['both', 'frequency']",0.006783430000268709,0.18599393000022246,['space'],784.8165526999999,784.8165526999999,0.18599393000022246,3.137337925554906,785.0133327000001,784.8165526999999,,,,[-2.578863000000183],,,,,,,cwzopc,001,english,0,2022-07-20_10h39.46.286,Continuous,2022.1.1,34.12413746977165,
20,0,20,0,2,0,2,0,,,,,,,,2.9513439955546836,time,472.0,0.6197972440558699,7.826558851981328e-05,0,54,"['both', 'frequency']",0.00311033000025418,0.18319253000026947,['space'],787.9808817999999,787.9808817999999,0.18319253000026947,3.134536525554953,788.1818126000001,787.9808817999999,,,,[-2.5435195000002295],,,,,,,cwzopc,001,english,0,2022-07-20_10h39.46.286,Continuous,2022.1.1,34.12413746977165,
