sweeps.thisRepN,sweeps.thisTrialN,sweeps.thisN,sweeps.thisIndex,trials.thisRepN,trials.thisTrialN,trials.thisN,trials.thisIndex,instructions.started,instructions.stopped,blank_text.started,blank_text.stopped,,text.started,text.stopped,Delay,Prediction,Frequency,Volume,Psychopy_level,isCatchTrial,len(y),finished_audiograms,probe.started,probe.stopped,feedback.keys,feedback.started,feedback.stopped,ISI.started,ISI.stopped,text_2.started,text_2.stopped,feedback.rt,break_txt.started,break_txt.stopped,Intervals,Audiogram_frequency,Audiogram_time,Audiogram_none,Audiogram_both,end_txt.started,end_txt.stopped,participant,session,language (english or french),Resume previous experiment,date,expName,psychopyVersion,frameRate,
0,0,0,0,0,0,0,0,17.16048530023545,None,54.79675320023671,None,0.3333333333333333,56.81551430001855,None,1.8659572729146283,frequency,1516.0,-1.8524017612251722,4.011770736827731e-05,0,26,[],0.004462966695427895,None,None,57.85605500033125,None,0.2168195666745305,2.082776839589159,58.077438100241125,None,,,,,,,,,,,eqdcwr,001,fr,0,2022-05-24_15h17.18.728,Continuous,2022.1.1,None,
0,0,0,0,1,0,1,0,,,,,,,,2.8048365722284134,frequency,1203.0,-0.21744947354408417,5.124426675134406e-05,0,27,[],0.011938866227865219,None,None,59.96264460030943,59.96264460030943,0.20174716599285603,3.0065837382212695,60.168416700325906,59.96264460030943,,,,,,,,,,,eqdcwr,001,fr,0,2022-05-24_15h17.18.728,Continuous,2022.1.1,None,
0,0,0,0,2,0,2,0,,,,,,,,1.3208961751841028,frequency,955.0,1.0667421535551203,4.836280659359767e-05,0,28,[],0.011930867098271847,None,['space'],63.000528200063854,63.000528200063854,0.2295184670947492,1.550414642278852,63.22353250021115,63.000528200063854,[-2.2719720997847617],,,,,,,,,,eqdcwr,001,fr,0,2022-05-24_15h17.18.728,Continuous,2022.1.1,None,
0,0,0,0,3,0,3,0,,,,,,,,2.2622507292527887,frequency,758.0,-0.9610225641738384,3.605905393468005e-05,0,29,[],0.004410966299474239,None,['space'],64.5620491001755,64.5620491001755,0.21337056625634432,2.475621295509133,64.78596269991249,64.5620491001755,[-0.5853962996043265],,,,,,,,,,eqdcwr,001,fr,0,2022-05-24_15h17.18.728,Continuous,2022.1.1,None,
0,0,0,0,4,0,4,0,,,,,,,,1.657472743850757,frequency,,,,1,29,[],0.012051966972649097,None,['space'],67.0685752001591,67.0685752001591,0.23017266672104597,1.887645410571803,67.28817570023239,67.0685752001591,[-0.5635273000225425],,,,,,,,,,eqdcwr,001,fr,0,2022-05-24_15h17.18.728,Continuous,2022.1.1,None,
0,0,0,0,5,0,5,0,,,,,,,,1.858232036959254,frequency,478.0,-6.395254223024433,3.475260697388233e-05,0,30,[],0.013205666095018387,None,None,68.96656539989635,68.96656539989635,0.23246006621047854,2.0906921031697325,69.19030250003561,68.96656539989635,,,,,,,,,,,eqdcwr,001,fr,0,2022-05-24_15h17.18.728,Continuous,2022.1.1,None,
0,0,0,0,6,0,6,0,,,,,,,,2.0259735430574692,frequency,379.0,-8.0,3.264724102951903e-05,0,31,[],0.006692566443234682,None,None,71.06582880020142,71.06582880020142,0.22121966630220413,2.2471932093596734,71.29522660002112,71.06582880020142,,,,,,,,,,,eqdcwr,001,fr,0,2022-05-24_15h17.18.728,Continuous,2022.1.1,None,
0,0,0,0,7,0,7,0,,,,,,,,1.0520431052543224,frequency,301.0,-1.0795428805985123,0.00010019321517649039,0,32,[],0.011669466271996498,None,['space'],73.34005510015413,73.34005510015413,0.23032096633687615,1.2823640715911986,73.5614263000898,73.34005510015413,[-0.6114505999721587],,,,,,,,,,eqdcwr,001,fr,0,2022-05-24_15h17.18.728,Continuous,2022.1.1,None,
0,0,0,0,8,0,8,0,,,,,,,,1.8900695493658224,frequency,239.0,-4.6673247606780865,0.00011045191498801621,0,33,[],0.008604366797953844,None,None,74.63499170029536,74.63499170029536,0.22218476654961705,2.1122543159154397,74.86279560020193,74.63499170029536,,,,,,,,,,,eqdcwr,001,fr,0,2022-05-24_15h17.18.728,Continuous,2022.1.1,None,
0,0,0,0,9,0,9,0,,,,,,,,2.4173049216585007,frequency,190.0,0.5146745868644369,0.000320289109045527,0,34,[],0.0037863668985664845,None,None,76.77510470012203,76.77510470012203,0.21213266672566533,2.629437588384166,77.00201390031725,76.77510470012203,,,,,,,,,,,eqdcwr,001,fr,0,2022-05-24_15h17.18.728,Continuous,2022.1.1,None,
0,0,0,0,10,0,10,0,,,,,,,,1.3797040829159446,frequency,151.0,-0.20381683913158044,0.00047985362135341797,0,35,[],0.010268867015838623,None,['space'],79.44036390027031,79.44036390027031,0.2244276669807732,1.6041317498967178,79.66244020033628,79.44036390027031,[-1.160160199739039],,,,,,,,,,eqdcwr,001,fr,0,2022-05-24_15h17.18.728,Continuous,2022.1.1,None,
1,0,1,0,0,0,0,0,,,,,,83.14418510021642,None,2.6608829363562947,time,674.0,-5.821510256316783,2.4201499956923874e-05,0,26,[],0.01272096624597907,None,None,84.16462239995599,None,0.23403396643698215,2.894916902793277,84.38550879992545,None,,81.06252419995144,None,"[0.16666666666666666, 0.16666666666666666, 0.3333333333333333, 0.3333333333333333, 0.16666666666666666, 0.16666666666666666, 0.16666666666666666, 0.5833333333333334, 0.5833333333333334, 0.16666666666666666, 0.16666666666666666, 0.16666666666666666, 0.3333333333333333, 0.3333333333333333, 0.3333333333333333]",,,,,,,eqdcwr,001,fr,0,2022-05-24_15h17.18.728,Continuous,2022.1.1,None,
1,0,1,0,1,0,1,0,,,,,,,,2.6608829363562947,time,253.0,-3.7103312397179966,0.00010718471975922207,0,27,[],0.011300066951662302,None,None,87.07074380014092,87.07074380014092,0.2005300670862198,2.8614130034425145,87.27697060024366,87.07074380014092,,,,,,,,,,,eqdcwr,001,fr,0,2022-05-24_15h17.18.728,Continuous,2022.1.1,None,
1,0,1,0,2,0,2,0,,,,,,,,2.6608829363562947,time,1070.0,3.620764948780027,7.12778226001255e-05,0,28,[],0.0113773662596941,None,None,89.96611660020426,89.96611660020426,0.2259483663365245,2.886831302692819,90.1858399999328,89.96611660020426,,,,,,,,,,,eqdcwr,001,fr,0,2022-05-24_15h17.18.728,Continuous,2022.1.1,None,
1,0,1,0,3,0,3,0,,,,,,,,2.6608829363562947,time,477.0,-4.72408604459961,4.2155231937482145e-05,0,29,[],0.01126076653599739,None,['space'],92.86471679992974,92.86471679992974,0.23354286653921008,2.8944258028955048,93.09004680020735,92.86471679992974,[-2.384285899810493],,,,,,,,,,eqdcwr,001,fr,0,2022-05-24_15h17.18.728,Continuous,2022.1.1,None,
1,0,1,0,4,0,4,0,,,,,,,,2.6608829363562947,time,425.0,-2.9088894283022952,5.38539506215568e-05,0,30,[],0.01092896657064557,None,['space'],95.77268660021946,95.77268660021946,0.22787136677652597,2.8887543031328207,95.99259839998558,95.77268660021946,[-0.8759824000298977],,,,,,,,,,eqdcwr,001,fr,0,2022-05-24_15h17.18.728,Continuous,2022.1.1,None,
1,0,1,0,5,0,5,0,,,,,,,,2.6608829363562947,time,135.0,1.3931224133268127,0.0007439335702180001,0,31,[],0.010621566791087389,None,['space'],98.6756176003255,98.6756176003255,0.2023418666794896,2.8632248030357843,98.88353209989145,98.6756176003255,[-1.3073280998505652],,,,,,,,,,eqdcwr,001,fr,0,2022-05-24_15h17.18.728,Continuous,2022.1.1,None,
1,0,1,0,6,0,6,0,,,,,,,,2.6608829363562947,time,379.0,-8.0,3.264724102951903e-05,0,32,[],0.0109740667976439,None,['space'],101.57219380000606,101.57219380000606,0.22926496667787433,2.890147903034169,101.7911042002961,101.57219380000606,[-1.8591903001070023],,,,,,,,,,eqdcwr,001,fr,0,2022-05-24_15h17.18.728,Continuous,2022.1.1,None,
1,0,1,0,7,0,7,0,,,,,,,,2.6608829363562947,time,,,,1,32,[],0.011330866254866123,None,['space'],104.47500050021335,104.47500050021335,0.22944656619802117,2.890329502554316,104.69633320020512,104.47500050021335,[-2.194816299714148],,,,,,,,,,eqdcwr,001,fr,0,2022-05-24_15h17.18.728,Continuous,2022.1.1,None,
1,0,1,0,8,0,8,0,,,,,,,,2.6608829363562947,time,849.0,-6.209850710456144,1.94518976953276e-05,0,33,[],0.012472766451537609,None,"['space', 'space']",107.37477059988305,107.37477059988305,0.2318096668459475,2.892692603202242,107.59600759996101,107.37477059988305,"[-2.3505946998484433, -0.3260152996517718]",,,,,,,,,,eqdcwr,001,fr,0,2022-05-24_15h17.18.728,Continuous,2022.1.1,None,
1,0,1,0,9,0,9,0,,,,,,,,2.6608829363562947,time,535.0,-1.09785569588792,5.815008614734031e-05,0,34,[],0.011073366738855839,None,['space'],110.27944179996848,110.27944179996848,0.20266846707090735,2.863551403427202,110.48247710010037,110.27944179996848,[-0.7188261998817325],,,,,,,,,,eqdcwr,001,fr,0,2022-05-24_15h17.18.728,Continuous,2022.1.1,None,
1,0,1,0,10,0,10,0,,,,,,,,2.6608829363562947,time,151.0,-1.962786356477132,0.0003918864981766286,0,35,[],0.010971666313707829,None,"['space', 'space']",113.17405149992555,113.17405149992555,0.22847626637667418,2.889359202732969,113.39334949990734,113.17405149992555,"[-2.0775504000484943, -0.31725950026884675]",,,,,,,,,,eqdcwr,001,fr,0,2022-05-24_15h17.18.728,Continuous,2022.1.1,None,
2,0,2,0,0,0,0,0,,,,,,123.13031050004065,None,1.4672536054943268,time,6205.0,0.2655412211528667,0.00012942780607624283,0,36,[],0.012925666756927967,None,None,124.14418480033055,None,0.2310441667214036,1.6982977722157304,124.35616340022534,None,,116.07585930032656,None,"[0.5833333333333334, 0.3333333333333333, 0.16666666666666666, 0.3333333333333333, 0.3333333333333333, 0.3333333333333333, 0.16666666666666666, 0.16666666666666666, 0.5833333333333334, 0.3333333333333333, 0.5833333333333334, 0.16666666666666666, 0.16666666666666666, 0.5833333333333334, 0.3333333333333333]",,,,,,,eqdcwr,001,fr,0,2022-05-24_15h17.18.728,Continuous,2022.1.1,None,
2,0,2,0,1,0,1,0,,,,,,,,1.4672536054943268,time,1163.0,1.2681121253058243,5.886668841032018e-05,0,37,[],0.010535466484725475,None,['space'],125.85502360016108,125.85502360016108,0.2289464664645493,1.6962000719588761,126.07483689999208,125.85502360016108,[-0.9743173997849226],,,,,,,,,,eqdcwr,001,fr,0,2022-05-24_15h17.18.728,Continuous,2022.1.1,None,
2,0,2,0,2,0,2,0,,,,,,,,1.4672536054943268,time,,,,1,37,[],0.0110641666688025,None,"['space', 'space']",127.56202630000189,127.56202630000189,0.22869116673246026,1.695944772226787,127.78358880011365,127.56202630000189,"[-1.2740388000383973, 0.12748089991509914]",,,,,,,,,,eqdcwr,001,fr,0,2022-05-24_15h17.18.728,Continuous,2022.1.1,None,
2,0,2,0,3,0,3,0,,,,,,,,1.4672536054943268,time,4925.0,0.0,0.00014758561655417712,0,38,[],0.01184456655755639,None,['space'],129.27045649988577,129.27045649988577,0.23219526652246714,1.699448872016794,129.4954973999411,129.27045649988577,[0.10680320020765066],,,,,,,,,,eqdcwr,001,fr,0,2022-05-24_15h17.18.728,Continuous,2022.1.1,None,
2,0,2,0,4,0,4,0,,,,,,,,1.4672536054943268,time,923.0,1.8996709219621675,5.20983379507635e-05,0,39,[],0.010730966459959745,None,None,130.98296210030094,130.98296210030094,0.2285213666036725,1.6957749720979993,131.19582949997857,130.98296210030094,,,,,,,,,,,eqdcwr,001,fr,0,2022-05-24_15h17.18.728,Continuous,2022.1.1,None,
2,0,2,0,5,0,5,0,,,,,,,,1.4672536054943268,time,3287.0,-0.9013148485459008,6.438418289813309e-05,0,40,[],0.010607266332954168,None,['space'],132.69496060023084,132.69496060023084,0.22755746636539698,1.6948110718597238,132.91359669994563,132.69496060023084,[-1.1180961998179555],,,,,,,,,,eqdcwr,001,fr,0,2022-05-24_15h17.18.728,Continuous,2022.1.1,None,
2,0,2,0,6,0,6,0,,,,,,,,1.4672536054943268,time,1305.0,0.3007636871571231,5.501617852372541e-05,0,41,[],0.01041296636685729,None,['space'],134.40221370011568,134.40221370011568,0.22814796632155776,1.6954015718158846,134.62433240003884,134.40221370011568,[-1.2893997998908162],,,,,,,,,,eqdcwr,001,fr,0,2022-05-24_15h17.18.728,Continuous,2022.1.1,None,
2,0,2,0,7,0,7,0,,,,,,,,1.4672536054943268,time,1644.0,4.050619014400645,9.363641179850988e-05,0,42,[],0.010364866349846125,None,['space'],136.1110690003261,136.1110690003261,0.22977466648444533,1.6970282719787722,136.33534470014274,136.1110690003261,[-1.310768499970436],,,,,,,,,,eqdcwr,001,fr,0,2022-05-24_15h17.18.728,Continuous,2022.1.1,None,
2,0,2,0,8,0,8,0,,,,,,,,1.4672536054943268,time,2071.0,2.800203292877205,0.00010544402987861936,0,43,[],0.0034035667777061462,None,['space'],137.8249078001827,137.8249078001827,0.21284246677532792,1.6800960722696547,138.04338680021465,137.8249078001827,[-1.3767840000800788],,,,,,,,,,eqdcwr,001,fr,0,2022-05-24_15h17.18.728,Continuous,2022.1.1,None,
2,0,2,0,9,0,9,0,,,,,,,,1.4672536054943268,time,2928.0,-0.36786061173586027,5.683927536640105e-05,0,44,[],0.004835766740143299,None,['space'],139.5386887001805,139.5386887001805,0.21436206670477986,1.6816156721991067,139.7580311000347,139.5386887001805,[-1.3621515999548137],,,,,,,,,,eqdcwr,001,fr,0,2022-05-24_15h17.18.728,Continuous,2022.1.1,None,
3,0,3,0,0,0,0,0,,,,,0.3333333333333333,144.4898192002438,None,2.3162335996391707,frequency,7818.0,0.014509987888892795,0.00017631646890657124,0,36,[],0.012120966333895922,None,None,145.53426870005205,None,0.21941506629809737,2.535648665937268,145.74678210029379,None,,141.24709860002622,None,,,,,,,,eqdcwr,001,fr,0,2022-05-24_15h17.18.728,Continuous,2022.1.1,None,
3,0,3,0,1,0,1,0,,,,,,,,2.535256932652259,frequency,6205.0,1.4305131152209283,0.00014800493081162125,0,37,[],0.010136166587471962,None,None,148.08710720017552,148.08710720017552,0.23242736654356122,2.76768429919582,148.31426250003278,148.08710720017552,,,,,,,,,,,eqdcwr,001,fr,0,2022-05-24_15h17.18.728,Continuous,2022.1.1,None,
3,0,3,0,2,0,2,0,,,,,,,,2.9864856755531743,frequency,4925.0,0.0,0.00014758561655417712,0,38,[],0.003433666191995144,None,['space'],150.87119919992983,150.87119919992983,0.21617426630109549,3.20265994185427,151.1006231000647,150.87119919992983,[-1.5108046997338533],,,,,,,,,,eqdcwr,001,fr,0,2022-05-24_15h17.18.728,Continuous,2022.1.1,None,
3,0,3,0,3,0,3,0,,,,,,,,1.8853180856303864,frequency,3909.0,-0.6113028682466998,7.674681632591457e-05,0,39,[],0.0029716668650507927,None,['space'],154.10835790028796,154.10835790028796,0.2134625669568777,2.098780652587264,154.33137489994988,154.10835790028796,[-2.716194299980998],,,,,,,,,,eqdcwr,001,fr,0,2022-05-24_15h17.18.728,Continuous,2022.1.1,None,
3,0,3,0,4,0,4,0,,,,,,,,1.3900737556950233,frequency,3103.0,-1.3782097177156962,5.509718244215233e-05,0,40,[],0.01019906671717763,None,['space'],156.23542560031638,156.23542560031638,0.20072946650907397,1.5908032222040973,156.43898180034012,156.23542560031638,[-1.6594334999099374],,,,,,,,,,eqdcwr,001,fr,0,2022-05-24_15h17.18.728,Continuous,2022.1.1,None,
3,0,3,0,5,0,5,0,,,,,,,,1.2622692819594346,frequency,,,,1,40,[],0.005525766406208277,None,['space'],157.85706870025024,157.85706870025024,0.21558356611058116,1.4778528480700157,158.07766250008717,157.85706870025024,[-1.1607441999949515],,,,,,,,,,eqdcwr,001,fr,0,2022-05-24_15h17.18.728,Continuous,2022.1.1,None,
3,0,3,0,6,0,6,0,,,,,,,,2.1040701855437702,frequency,1955.0,2.377718092861507,9.569677844779292e-05,0,41,[],0.011594066862016916,None,None,159.36180180031806,159.36180180031806,0.20653326669707894,2.310603452240849,159.57340699993074,159.36180180031806,,,,,,,,,,,eqdcwr,001,fr,0,2022-05-24_15h17.18.728,Continuous,2022.1.1,None,
3,0,3,0,7,0,7,0,,,,,,,,2.1911713432501907,frequency,1552.0,3.199854082416083,7.616689520096281e-05,0,42,[],0.009900067001581192,0.2033503670245409,['space'],161.70724639995024,161.70724639995024,0.2033503670245409,2.3945217102747316,161.91115480009466,161.70724639995024,[-1.8912038998678327],,,,,,,,,,eqdcwr,001,fr,0,2022-05-24_15h17.18.728,Continuous,2022.1.1,None,
3,0,3,0,8,0,8,0,,,,,,,,1.399126551886378,frequency,1232.0,3.6852042209336804,8.216557030355515e-05,0,43,[],0.006537566892802715,None,['space'],164.1302054002881,164.1302054002881,0.21907236659899354,1.6181989184853716,164.35748590016738,164.1302054002881,[-0.7855854998342693],,,,,,,,,,eqdcwr,001,fr,0,2022-05-24_15h17.18.728,Continuous,2022.1.1,None,
3,0,3,0,9,0,9,0,,,,,,,,2.1703347615332937,frequency,978.0,0.8892522265075375,4.8108749741026005e-05,0,44,[],0.00912496680393815,None,['space'],165.78024840028957,165.78024840028957,0.2281297668814659,2.3984645284147597,166.00327689992264,165.78024840028957,[-1.1081767999567091],,,,,,,,,,eqdcwr,001,fr,0,2022-05-24_15h17.18.728,Continuous,2022.1.1,None,
3,0,3,0,10,0,10,0,,,,,,,,2.8843750690178815,frequency,776.0,0.14349457889728973,4.011663047137784e-05,0,45,[],0.008527066558599472,None,['space'],168.20028720004484,168.20028720004484,0.22582096653059125,3.110196035548473,168.42047929996625,168.20028720004484,[-1.951991899870336],,,,,,,,,,eqdcwr,001,fr,0,2022-05-24_15h17.18.728,Continuous,2022.1.1,None,
4,0,4,0,0,0,0,0,,,,,,175.30947380000725,None,1.3614791736757652,none,425.0,-1.4520980261151077,6.368793063647327e-05,0,26,[],0.012412366922944784,None,None,176.33137420006096,None,0.20671106688678265,1.5681902405625479,176.53651629993692,None,,171.32842259993777,None,"[0.16666666666666666, 0.3333333333333333, 0.3333333333333333, 0.16666666666666666, 0.5833333333333334, 0.3333333333333333, 0.3333333333333333, 0.5833333333333334, 0.16666666666666666, 0.16666666666666666, 0.16666666666666666, 0.3333333333333333, 0.3333333333333333, 0.5833333333333334, 0.16666666666666666]",,,,,,,eqdcwr,001,fr,0,2022-05-24_15h17.18.728,Continuous,2022.1.1,None,
4,0,4,0,1,0,1,0,,,,,,,,2.0470621486947946,none,477.0,-2.022317490734724,5.7536032471530184e-05,0,27,[],0.0034296661615371704,None,['space'],177.93117580004036,177.93117580004036,0.21217986615374684,2.2592420148485415,178.15043759997934,177.93117580004036,[-1.193756700027734],,,,,,,,,,eqdcwr,001,fr,0,2022-05-24_15h17.18.728,Continuous,2022.1.1,None,
4,0,4,0,2,0,2,0,,,,,,,,1.782990175227099,none,1134.0,-3.3953219477057317,3.35905267665575e-05,0,28,[],0.00883546657860279,0.20023386646062136,None,180.22813240019605,180.22813240019605,0.20023386646062136,1.9832240416877203,180.43728720024228,180.22813240019605,,,,,,,,,,,eqdcwr,001,fr,0,2022-05-24_15h17.18.728,Continuous,2022.1.1,None,
4,0,4,0,3,0,3,0,,,,,,,,2.978026933399872,none,1273.0,-3.832564935147909,3.469511114092976e-05,0,29,[],0.009588767308741808,None,None,182.24172129994258,182.24172129994258,0.20136296702548862,3.1793899004253605,182.44973540026695,182.24172129994258,,,,,,,,,,,eqdcwr,001,fr,0,2022-05-24_15h17.18.728,Continuous,2022.1.1,None,
4,0,4,0,4,0,4,0,,,,,,,,1.28343773657891,none,,,,1,29,[],0.009535466320812702,None,None,185.4570130002685,185.4570130002685,0.23074016626924276,1.5141779028481528,185.67976110009477,185.4570130002685,,,,,,,,,,,eqdcwr,001,fr,0,2022-05-24_15h17.18.728,Continuous,2022.1.1,None,
4,0,4,0,5,0,5,0,,,,,,,,1.4843077330502414,none,757.0,-2.9704099907363295,2.864408470859264e-05,0,30,[],0.010120866820216179,None,None,186.98565650032833,186.98565650032833,0.22701776679605246,1.711325499846294,187.2062864000909,186.98565650032833,,,,,,,,,,,eqdcwr,001,fr,0,2022-05-24_15h17.18.728,Continuous,2022.1.1,None,
4,0,4,0,6,0,6,0,,,,,,,,2.793602244753834,none,379.0,-8.0,3.264724102951903e-05,0,31,[],0.009364767000079155,0.2022903668694198,None,188.71382820000872,188.71382820000872,0.2022903668694198,2.995892611623254,188.9220779002644,188.71382820000872,,,,,,,,,,,eqdcwr,001,fr,0,2022-05-24_15h17.18.728,Continuous,2022.1.1,None,
4,0,4,0,7,0,7,0,,,,,,,,2.917788197392369,none,338.0,-7.624974211757757,3.851211086595087e-05,0,32,[],0.0048997667618095875,None,['space'],191.7428132002242,191.7428132002242,0.21753886668011546,3.1353270640724844,191.96510499995202,191.7428132002242,[-1.934661400038749],,,,,,,,,,eqdcwr,001,fr,0,2022-05-24_15h17.18.728,Continuous,2022.1.1,None,
4,0,4,0,8,0,8,0,,,,,,,,1.777665482729649,none,179.0,-2.1560935068494707,0.0002667623864695113,0,33,[],0.009566066786646843,None,None,194.90919060027227,194.90919060027227,0.2007285668514669,1.9783940495811159,195.11524660000578,194.90919060027227,,,,,,,,,,,eqdcwr,001,fr,0,2022-05-24_15h17.18.728,Continuous,2022.1.1,None,
4,0,4,0,9,0,9,0,,,,,,,,1.1403052555063533,none,142.0,-1.6865763747934723,0.0004705330628419473,0,34,[],0.009017166215926409,0.20061056641861796,None,196.92449530027807,196.92449530027807,0.20061056641861796,1.3409158219249713,197.1294887000695,196.92449530027807,,,,,,,,,,,eqdcwr,001,fr,0,2022-05-24_15h17.18.728,Continuous,2022.1.1,None,
4,0,4,0,10,0,10,0,,,,,,,,1.8049037678006583,none,601.0,-2.1432627796034627,4.351145758765735e-05,0,35,[],0.007847966626286507,None,None,198.29827040014789,198.29827040014789,0.2259806669317186,2.0308844347323767,198.52496600011364,198.29827040014789,,,,,,,,,,,eqdcwr,001,fr,0,2022-05-24_15h17.18.728,Continuous,2022.1.1,None,
5,0,5,0,0,0,0,0,,,,,0.5833333333333334,202.9607037003152,None,2.460635524810514,frequency,6061.0,0.703717154766817,0.00012876546313278798,0,46,[],0.012941867113113403,None,None,203.98885730002075,None,0.2110014669597149,2.671636991770229,204.19458180014044,None,,200.34955279994756,None,,,,,,,,eqdcwr,001,fr,0,2022-05-24_15h17.18.728,Continuous,2022.1.1,None,
5,0,5,0,1,0,1,0,,,,,,,,1.1344977741331428,frequency,4045.0,-1.9113487057052139,6.984475613601309e-05,0,47,[],0.008999266661703587,None,None,206.68857540003955,206.68857540003955,0.208138566929847,1.3426363410629898,206.89514250028878,206.68857540003955,,,,,,,,,,,eqdcwr,001,fr,0,2022-05-24_15h17.18.728,Continuous,2022.1.1,None,
5,0,5,0,2,0,2,0,,,,,,,,2.9396809029883233,frequency,2700.0,-4.00754132962138,4.631419810991971e-05,0,48,[],0.007394166197627783,None,['space'],208.05833180015907,208.05833180015907,0.22455036640167236,3.1642312693899957,208.28109610034153,208.05833180015907,[-0.8896154998801649],,,,,,,,,,eqdcwr,001,fr,0,2022-05-24_15h17.18.728,Continuous,2022.1.1,None,
5,0,5,0,3,0,3,0,,,,,,,,1.8057365977133553,frequency,1802.0,2.7685951420172565,9.059977086102066e-05,0,49,[],0.0065949661657214165,None,"['space', 'space', 'space']",211.2452525999397,211.2452525999397,0.2213227665051818,2.027059364218537,211.466857700143,211.2452525999397,"[-2.732412699609995, -1.3152044997550547, 0.17918730014935136]",,,,,,,,,,eqdcwr,001,fr,0,2022-05-24_15h17.18.728,Continuous,2022.1.1,None,
5,0,5,0,4,0,4,0,,,,,,,,1.6525891706824973,frequency,1203.0,-4.826645738200142,3.014293034757366e-05,0,50,[],0.008297866210341454,None,None,213.29673220030963,213.29673220030963,0.21510626655071974,1.867695437233217,213.51888999994844,213.29673220030963,,,,,,,,,,,eqdcwr,001,fr,0,2022-05-24_15h17.18.728,Continuous,2022.1.1,None,
5,0,5,0,5,0,5,0,,,,,,,,2.654487796959841,frequency,803.0,-2.8475692040506084,2.77048375396093e-05,0,51,[],0.008946566376835108,0.20144336624071002,['space'],215.19269540021196,215.19269540021196,0.20144336624071002,2.855931163200551,215.39541279990226,215.19269540021196,[-0.776303599588573],,,,,,,,,,eqdcwr,001,fr,0,2022-05-24_15h17.18.728,Continuous,2022.1.1,None,
5,0,5,0,6,0,6,0,,,,,,,,1.2722802532494404,frequency,536.0,-7.0,2.940459328001812e-05,0,52,[],0.00899186683818698,None,None,218.07995070004836,218.07995070004836,0.2002905667759478,1.4725708200253882,218.28532860009,218.07995070004836,,,,,,,,,,,eqdcwr,001,fr,0,2022-05-24_15h17.18.728,Continuous,2022.1.1,None,
5,0,5,0,7,0,7,0,,,,,,,,2.7988078927220554,frequency,358.0,0.9486947978906146,9.755151881643795e-05,0,53,[],0.00837986683472991,0.2010385668836534,None,219.58860850008205,219.58860850008205,0.2010385668836534,2.999846459605709,219.79495200002566,219.58860850008205,,,,,,,,,,,eqdcwr,001,fr,0,2022-05-24_15h17.18.728,Continuous,2022.1.1,None,
5,0,5,0,8,0,8,0,,,,,,,,1.366578736144232,frequency,,,,1,53,[],0.006346966605633497,None,None,222.6247813999653,222.6247813999653,0.22085796669125557,1.5874367028354877,222.85300150001422,222.6247813999653,,,,,,,,,,,eqdcwr,001,fr,0,2022-05-24_15h17.18.728,Continuous,2022.1.1,None,
5,0,5,0,9,0,9,0,,,,,,,,2.2807875288748747,frequency,160.0,-5.787614180078371,0.00021114912951169504,0,54,[],0.010362866800278425,None,None,224.23725820006803,224.23725820006803,0.20227546663954854,2.483062995514423,224.44304840033874,224.23725820006803,,,,,,,,,,,eqdcwr,001,fr,0,2022-05-24_15h17.18.728,Continuous,2022.1.1,None,
6,0,6,0,0,0,0,0,,,,,0.3333333333333333,228.53720350004733,None,2.7803658910992444,both,1516.0,-1.7797767787791,4.045454819861947e-05,0,26,[],0.012871566694229841,None,None,229.57752400031313,None,0.21063626650720835,2.9910021576064527,229.78913390031084,None,,226.7538036000915,None,,,,,,,,eqdcwr,001,fr,0,2022-05-24_15h17.18.728,Continuous,2022.1.1,None,
6,0,6,0,1,0,1,0,,,,,,,,2.7803658910992444,both,1203.0,1.0330427333379602,5.917930950633863e-05,0,27,[],0.008473566267639399,None,None,232.59832550026476,232.59832550026476,0.22439846629276872,3.004764357392013,232.8178634000942,232.59832550026476,,,,,,,,,,,eqdcwr,001,fr,0,2022-05-24_15h17.18.728,Continuous,2022.1.1,None,
6,0,6,0,2,0,2,0,,,,,,,,2.7803658910992444,both,955.0,-4.535911399601586,2.53734088978084e-05,0,28,[],0.008582166861742735,None,"['space', 'space']",235.6195757999085,235.6195757999085,0.20014576660469174,2.980511657703936,235.829803599976,235.6195757999085,"[-2.4830431998707354, -0.6509181996807456]",,,,,,,,,,eqdcwr,001,fr,0,2022-05-24_15h17.18.728,Continuous,2022.1.1,None,
6,0,6,0,3,0,3,0,,,,,,,,2.7803658910992444,both,,,,1,28,[],0.00864256639033556,None,['space'],238.63637580024078,238.63637580024078,0.20238266652449965,2.982748557623744,238.84740310022607,238.63637580024078,[-2.066970099695027],,,,,,,,,,eqdcwr,001,fr,0,2022-05-24_15h17.18.728,Continuous,2022.1.1,None,
6,0,6,0,4,0,4,0,,,,,,,,2.7803658910992444,both,602.0,-2.2799722283164865,4.2711995815422864e-05,0,29,[],0.009926666505634785,None,None,241.6561551000923,241.6561551000923,0.23490236653015018,3.0152682576293945,241.88342310022563,241.6561551000923,,,,,,,,,,,eqdcwr,001,fr,0,2022-05-24_15h17.18.728,Continuous,2022.1.1,None,
6,0,6,0,5,0,5,0,,,,,,,,2.7803658910992444,both,478.0,-5.7171229042696865,3.7574564420794095e-05,0,30,[],0.008195466827601194,0.20299466652795672,['space'],244.69064840022475,244.69064840022475,0.20299466652795672,2.983360557627201,244.90256670024246,244.69064840022475,[-2.0182229997590184],,,,,,,,,,eqdcwr,001,fr,0,2022-05-24_15h17.18.728,Continuous,2022.1.1,None,
6,0,6,0,6,0,6,0,,,,,,,,2.7803658910992444,both,379.0,-8.0,3.264724102951903e-05,0,31,[],0.004857566673308611,None,"['space', 'space']",247.7017332999967,247.7017332999967,0.2207443662919104,3.001110257391155,247.92838519997895,247.7017332999967,"[-2.381350299809128, -0.46940970001742244]",,,,,,,,,,eqdcwr,001,fr,0,2022-05-24_15h17.18.728,Continuous,2022.1.1,None,
6,0,6,0,7,0,7,0,,,,,,,,2.7803658910992444,both,301.0,2.313783963598387,0.00014808281290088683,0,32,[],0.008252366445958614,0.20185516634956002,"['space', 'space']",250.7304386002943,250.7304386002943,0.20185516634956002,2.9822210574488044,250.94219730002806,250.7304386002943,"[-2.018081999849528, -0.026346399914473295]",,,,,,,,,,eqdcwr,001,fr,0,2022-05-24_15h17.18.728,Continuous,2022.1.1,None,
6,0,6,0,8,0,8,0,,,,,,,,2.7803658910992444,both,239.0,-7.832391467945172,7.672199983029515e-05,0,33,[],0.004475167021155357,0.19204666698351502,['space'],253.74110820004717,253.74110820004717,0.19204666698351502,2.9724125580827594,253.94714249996468,253.74110820004717,[-1.3553594998084009],,,,,,,,,,eqdcwr,001,fr,0,2022-05-24_15h17.18.728,Continuous,2022.1.1,None,
6,0,6,0,9,0,9,0,,,,,,,,2.7803658910992444,both,190.0,-5.775940184504378,0.000155242787710801,0,34,[],0.008227566722780466,0.20074006682261825,['space'],256.75715370010585,256.75715370010585,0.20074006682261825,2.9811059579218626,256.96414529997855,256.75715370010585,[-2.2445283997803926],,,,,,,,,,eqdcwr,001,fr,0,2022-05-24_15h17.18.728,Continuous,2022.1.1,None,
6,0,6,0,10,0,10,0,,,,,,,,2.7803658910992444,both,151.0,1.2752702593328658,0.0005689356286666713,0,35,[],0.008295666892081499,None,"['space', 'space']",259.77679290017113,259.77679290017113,0.2022120668552816,2.982577957954526,259.988665800076,259.77679290017113,"[-1.4241494997404516, 0.01577110029757023]",,,,,,,,,,eqdcwr,001,fr,0,2022-05-24_15h17.18.728,Continuous,2022.1.1,None,
7,0,7,0,0,0,0,0,,,,,,265.89605510002,None,2.0328097764384765,time,,,,1,44,[],0.013009566348046064,None,['space'],266.9330277000554,None,0.21417766623198986,2.2469874426704664,267.1414673002437,None,[-0.7793276002630591],262.80003469996154,None,"[0.5833333333333334, 0.16666666666666666, 0.5833333333333334, 0.16666666666666666, 0.16666666666666666, 0.16666666666666666, 0.16666666666666666, 0.16666666666666666, 0.3333333333333333, 0.5833333333333334, 0.3333333333333333, 0.5833333333333334, 0.16666666666666666, 0.5833333333333334, 0.5833333333333334]",,,,,,,eqdcwr,001,fr,0,2022-05-24_15h17.18.728,Continuous,2022.1.1,None,
7,0,7,0,1,0,1,0,,,,,,,,2.0328097764384765,time,1073.0,-11.94483255050857,1.1907839565346631e-05,0,45,[],0.009213066194206476,None,None,269.2054523001425,269.2054523001425,0.22543186647817492,2.2582416429166514,269.428037900012,269.2054523001425,,,,,,,,,,,eqdcwr,001,fr,0,2022-05-24_15h17.18.728,Continuous,2022.1.1,None,
7,0,7,0,2,0,2,0,,,,,,,,2.0328097764384765,time,568.0,-13.079868771151197,1.3494972831851002e-05,0,46,[],0.0003812662325799465,0.188166166190058,None,271.4843607000075,271.4843607000075,0.188166166190058,2.2209759426285345,271.69776830030605,271.4843607000075,,,,,,,,,,,eqdcwr,001,fr,0,2022-05-24_15h17.18.728,Continuous,2022.1.1,None,
7,0,7,0,3,0,3,0,,,,,,,,2.0328097764384765,time,379.0,-17.0,1.1583678238809086e-05,0,47,[],0.008056366350501776,0.20301026618108153,['space'],273.7558496003039,273.7558496003039,0.20301026618108153,2.235820042619558,273.96715039992705,273.7558496003039,[0.09321139985695481],,,,,,,,,,eqdcwr,001,fr,0,2022-05-24_15h17.18.728,Continuous,2022.1.1,None,
7,0,7,0,4,0,4,0,,,,,,,,2.0328097764384765,time,301.0,-16.120817818351256,1.773268773301795e-05,0,48,[],0.007532366551458836,0.20244476664811373,None,276.0264429003,276.0264429003,0.20244476664811373,2.23525454308659,276.23753300029784,276.0264429003,,,,,,,,,,,eqdcwr,001,fr,0,2022-05-24_15h17.18.728,Continuous,2022.1.1,None,
7,0,7,0,5,0,5,0,,,,,,,,2.0328097764384765,time,190.0,-15.75493385807862,4.921095001288596e-05,0,49,[],0.006389467045664787,0.20107006700709462,None,278.2980347000994,278.2980347000994,0.20107006700709462,2.233879843445571,278.50461740000173,278.2980347000994,,,,,,,,,,,eqdcwr,001,fr,0,2022-05-24_15h17.18.728,Continuous,2022.1.1,None,
7,0,7,0,6,0,6,0,,,,,,,,2.0328097764384765,time,213.0,-6.633041636763854,0.00011181751829409107,0,50,[],0.007882067002356052,0.20030976692214608,['space'],280.5660239001736,280.5660239001736,0.20030976692214608,2.2331195433606226,280.7739838003181,280.5660239001736,[-1.254136999603361],,,,,,,,,,eqdcwr,001,fr,0,2022-05-24_15h17.18.728,Continuous,2022.1.1,None,
7,0,7,0,7,0,7,0,,,,,,,,2.0328097764384765,time,2703.0,-4.945198342342845,4.1469407848548424e-05,0,51,[],0.006967166438698769,None,None,282.8388853999786,282.8388853999786,0.2244523665867746,2.257262143025251,283.0609548999928,282.8388853999786,,,,,,,,,,,eqdcwr,001,fr,0,2022-05-24_15h17.18.728,Continuous,2022.1.1,None,
7,0,7,0,8,0,8,0,,,,,,,,2.0328097764384765,time,1204.0,-13.909092872823642,1.0602510123000027e-05,0,52,[],0.007758766878396273,None,['space'],285.1157408999279,285.1157408999279,0.20021946681663394,2.2330292432551104,285.3247092003003,285.1157408999279,[-1.7392137995921075],,,,,,,,,,eqdcwr,001,fr,0,2022-05-24_15h17.18.728,Continuous,2022.1.1,None,
7,0,7,0,9,0,9,0,,,,,,,,2.0328097764384765,time,716.0,-4.385991944683637,2.6327929358671607e-05,0,53,[],0.007413266692310572,0.19887206656858325,['space'],287.38634219998494,287.38634219998494,0.19887206656858325,2.2316818430070597,287.5930456002243,287.38634219998494,[-0.3695507002994418],,,,,,,,,,eqdcwr,001,fr,0,2022-05-24_15h17.18.728,Continuous,2022.1.1,None,
7,0,7,0,10,0,10,0,,,,,,,,2.0328097764384765,time,169.0,-6.378754315789718,0.00018153007710958652,0,54,[],0.007425967138260603,0.19794376706704497,None,289.65879649994895,289.65879649994895,0.19794376706704497,2.2307535435055215,289.86168579990044,289.65879649994895,,,,,,,,,,,eqdcwr,001,fr,0,2022-05-24_15h17.18.728,Continuous,2022.1.1,None,
7,0,7,0,11,0,11,0,,,,,,,,2.0328097764384765,time,268.0,-9.648628705817384,4.8869911980450545e-05,0,55,[],0.007572466507554054,0.20003686659038067,None,291.9243455999531,291.9243455999531,0.20003686659038067,2.232846643028857,292.12934440001845,291.9243455999531,,,,,,,,,,,eqdcwr,001,fr,0,2022-05-24_15h17.18.728,Continuous,2022.1.1,None,
7,0,7,0,12,0,12,0,,,,,,,,2.0328097764384765,time,239.0,-12.803095755139111,4.328971237018404e-05,0,56,[],0.0075553664937615395,0.19785746652632952,['space'],294.19371289992705,294.19371289992705,0.19785746652632952,2.230667242964806,294.398859300185,294.19371289992705,[0.13469159975647926],,,,,,,,,,eqdcwr,001,fr,0,2022-05-24_15h17.18.728,Continuous,2022.1.1,None,
8,0,8,0,0,0,0,0,,,,,0.16666666666666666,299.9083275999874,None,2.1201879639590278,frequency,8000.0,6.0,0.00036221798003749513,0,55,[],0.011041266843676567,0.20606996677815914,None,300.9274002001621,None,0.20606996677815914,2.326257930737187,301.1274542999454,None,,296.4672381002456,None,,,,,,,,eqdcwr,001,fr,0,2022-05-24_15h17.18.728,Continuous,2022.1.1,None,
8,0,8,0,1,0,1,0,,,,,,,,1.8459725967459986,frequency,7127.0,4.524277358317903,0.00026107143049867423,0,56,[],0.0030487668700516224,None,['space'],303.2786111002788,303.2786111002788,0.2138798669911921,2.0598524637371907,303.5074201002717,303.2786111002788,[-1.750033499673009],,,,,,,,,,eqdcwr,001,fr,0,2022-05-24_15h17.18.728,Continuous,2022.1.1,None,
8,0,8,0,2,0,2,0,,,,,,,,2.392633396009675,frequency,6349.0,4.897361529029129,0.0002310849443261672,0,57,[],0.007182266563177109,0.19732226664200425,['space'],305.3778611999005,305.3778611999005,0.19732226664200425,2.589955662651679,305.5811862000264,305.3778611999005,[-1.449948599562049],,,,,,,,,,eqdcwr,001,fr,0,2022-05-24_15h17.18.728,Continuous,2022.1.1,None,
8,0,8,0,3,0,3,0,,,,,,,,1.206254424410186,frequency,5656.0,5.4076552337489225,0.00023959203064401484,0,58,[],0.01612713374197483,None,['space'],308.0070696002804,308.0070696002804,0.22360733337700367,1.4298617577871897,308.2349497000687,308.0070696002804,[-2.1511234999634326],,,,,,,,,,eqdcwr,001,fr,0,2022-05-24_15h17.18.728,Continuous,2022.1.1,None,
8,0,8,0,4,0,4,0,,,,,,,,2.94251468477498,frequency,5039.0,2.0912863064658813,0.000192497839230386,0,59,[],0.004952366463840008,0.19511306658387184,['space'],309.4660458001308,309.4660458001308,0.19511306658387184,3.1376277513588517,309.669329599943,309.4660458001308,[-1.129724099766463],,,,,,,,,,eqdcwr,001,fr,0,2022-05-24_15h17.18.728,Continuous,2022.1.1,None,
8,0,8,0,5,0,5,0,,,,,,,,1.4286720189066109,frequency,4489.0,5.181244198837537,0.0002135102856128806,0,60,[],0.007119566202163696,0.20148966601118445,['space'],312.6443894999102,312.6443894999102,0.20148966601118445,1.6301616849177953,312.8518901001662,312.6443894999102,[-2.764197299722582],,,,,,,,,,eqdcwr,001,fr,0,2022-05-24_15h17.18.728,Continuous,2022.1.1,None,
8,0,8,0,6,0,6,0,,,,,,,,2.190151140822582,frequency,3999.0,0.634324439269629,9.028079908423362e-05,0,61,[],0.0015141665935516357,None,['space'],314.3115508002229,314.3115508002229,0.2116815666668117,2.401832707489394,314.53585179988295,314.3115508002229,[-1.3754603997804224],,,,,,,,,,eqdcwr,001,fr,0,2022-05-24_15h17.18.728,Continuous,2022.1.1,None,
8,0,8,0,7,0,7,0,,,,,,,,2.2390963883295956,frequency,3563.0,-0.7968955298086948,6.958307306246991e-05,0,62,[],0.006975766737014055,None,['space'],316.75138440029696,316.75138440029696,0.1998249664902687,2.4389213548198643,316.95970189990476,316.75138440029696,[-1.9832653999328613],,,,,,,,,,eqdcwr,001,fr,0,2022-05-24_15h17.18.728,Continuous,2022.1.1,None,
8,0,8,0,8,0,8,0,,,,,,,,2.852694466514702,frequency,,,,1,62,[],0.0038876663893461227,0.19056346639990807,['space'],319.22607470024377,319.22607470024377,0.19056346639990807,3.04325793291461,319.42582180025056,319.22607470024377,[-2.0014606998302042],,,,,,,,,,eqdcwr,001,fr,0,2022-05-24_15h17.18.728,Continuous,2022.1.1,None,
9,0,9,0,0,0,0,0,,,,,,325.18481850018725,None,2.9362317747463162,none,,,,1,35,[],0.012550966814160347,None,None,326.2148922001943,None,0.23499516677111387,3.17122694151743,326.4373906003311,None,,322.31174489995465,None,"[0.5833333333333334, 0.3333333333333333, 0.3333333333333333, 0.3333333333333333, 0.5833333333333334, 0.16666666666666666, 0.5833333333333334, 0.16666666666666666, 0.16666666666666666, 0.5833333333333334, 0.16666666666666666, 0.3333333333333333, 0.16666666666666666, 0.16666666666666666, 0.16666666666666666]",,,,,,,eqdcwr,001,fr,0,2022-05-24_15h17.18.728,Continuous,2022.1.1,None,
9,0,9,0,1,0,1,0,,,,,,,,1.200753324647227,none,341.0,3.8650806001028633,0.00014336195240928506,0,36,[],0.008397967088967562,0.20086686685681343,['space'],329.3972221999429,329.3972221999429,0.20086686685681343,1.4016201915040405,329.60430700005963,329.3972221999429,[0.05877320049330592],,,,,,,,,,eqdcwr,001,fr,0,2022-05-24_15h17.18.728,Continuous,2022.1.1,None,
9,0,9,0,2,0,2,0,,,,,,,,1.3146024158121814,none,608.0,0.8431685369116714,6.016230740849593e-05,0,37,[],0.0028528664261102676,None,None,330.82681669993326,330.82681669993326,0.19197756657376885,1.5065799823859503,331.03470520023257,330.82681669993326,,,,,,,,,,,eqdcwr,001,fr,0,2022-05-24_15h17.18.728,Continuous,2022.1.1,None,
9,0,9,0,3,0,3,0,,,,,,,,2.0399647211579883,none,203.0,4.0,0.00041138224990017137,0,38,[],0.016172233503311872,None,None,332.38341420004144,332.38341420004144,0.22931313328444958,2.269277854442438,332.59728990029544,332.38341420004144,,,,,,,,,,,eqdcwr,001,fr,0,2022-05-24_15h17.18.728,Continuous,2022.1.1,None,
9,0,9,0,4,0,4,0,,,,,,,,1.0563509272352845,none,161.0,3.2041656851057416,0.000589269395753329,0,39,[],0.006950066424906254,None,['space'],334.6702914000489,334.6702914000489,0.2311592665500939,1.2875101937853783,334.8967186002992,334.6702914000489,[-1.390506399795413],,,,,,,,,,eqdcwr,001,fr,0,2022-05-24_15h17.18.728,Continuous,2022.1.1,None,
9,0,9,0,5,0,5,0,,,,,,,,1.502416478841314,none,430.0,3.637625536377647,0.00011404253160681398,0,40,[],0.004809666890650988,0.19390316680073738,['space'],335.9780995999463,335.9780995999463,0.19390316680073738,1.6963196456420513,336.1782579999417,335.9780995999463,[-0.7455732999369502],,,,,,,,,,eqdcwr,001,fr,0,2022-05-24_15h17.18.728,Continuous,2022.1.1,None,
9,0,9,0,6,0,6,0,,,,,,,,2.734221977793964,none,304.0,3.8623428302238687,0.00017202547756349027,0,41,[],0.006887266878038645,None,['space'],337.7108279000968,337.7108279000968,0.2018322665244341,2.936054244318398,337.9143322999589,337.7108279000968,[-0.4945233999751508],,,,,,,,,,eqdcwr,001,fr,0,2022-05-24_15h17.18.728,Continuous,2022.1.1,None,
9,0,9,0,7,0,7,0,,,,,,,,1.643770848672986,none,542.0,2.0314609891098776,8.199148936757101e-05,0,42,[],0.0053947665728628635,0.19379926659166813,['space'],340.68143310025334,340.68143310025334,0.19379926659166813,1.8375701152646542,340.88694320013747,340.68143310025334,[-1.049180899746716],,,,,,,,,,eqdcwr,001,fr,0,2022-05-24_15h17.18.728,Continuous,2022.1.1,None,
9,0,9,0,8,0,8,0,,,,,,,,2.4531638045771462,none,181.0,0.923540632828849,0.0003721813599207209,0,43,[],0.006731666624546051,0.19703396642580628,['space'],342.5642400002107,342.5642400002107,0.19703396642580628,2.6501977710029525,342.7663501999341,342.5642400002107,[-1.411863399669528],,,,,,,,,,eqdcwr,001,fr,0,2022-05-24_15h17.18.728,Continuous,2022.1.1,None,
10,0,10,0,0,0,0,0,,,,,0.3333333333333333,348.9113779999316,None,2.8896454423660103,frequency,932.0,2.1721034228509026,5.408676913963764e-05,0,63,[],0.012978566344827414,None,"['space', 'space']",349.9430170003325,None,0.2082458664663136,3.097891308832324,350.14195830002427,None,"[-1.991017600055784, -1.044751700013876]",345.2506317999214,None,,,,,,,,eqdcwr,001,fr,0,2022-05-24_15h17.18.728,Continuous,2022.1.1,None,
10,0,10,0,1,0,1,0,,,,,,,,2.9650779122902886,frequency,740.0,0.6317467650940842,4.465072337480242e-05,0,64,[],0.002191966399550438,None,"['space', 'space']",353.06374280015007,353.06374280015007,0.21080706641077995,3.1758849787010686,353.28988730022684,353.06374280015007,"[-2.7435425999574363, -0.8395048999227583]",,,,,,,,,,eqdcwr,001,fr,0,2022-05-24_15h17.18.728,Continuous,2022.1.1,None,
10,0,10,0,2,0,2,0,,,,,,,,1.4654004272409034,frequency,587.0,0.7122371123753203,6.281817887806485e-05,0,65,[],0.005592566914856434,0.19512416701763868,['space'],356.2809484000318,356.2809484000318,0.19512416701763868,1.660524594258542,356.485570800025,356.2809484000318,[-2.0487609999254346],,,,,,,,,,eqdcwr,001,fr,0,2022-05-24_15h17.18.728,Continuous,2022.1.1,None,
10,0,10,0,3,0,3,0,,,,,,,,1.6555783927696186,frequency,466.0,1.0731163073702241,8.28056585160033e-05,0,66,[],0.006063266657292843,0.19598706671968102,None,357.98358489992097,357.98358489992097,0.19598706671968102,1.8515654594892996,358.1876680999994,357.98358489992097,,,,,,,,,,,eqdcwr,001,fr,0,2022-05-24_15h17.18.728,Continuous,2022.1.1,None,
10,0,10,0,4,0,4,0,,,,,,,,2.646098235734299,frequency,370.0,2.3321549192226536,0.0001103201770650094,0,67,[],0.002140866592526436,None,None,359.87254470027983,359.87254470027983,0.21106206672266126,2.8571603024569603,360.08986659999937,359.87254470027983,,,,,,,,,,,eqdcwr,001,fr,0,2022-05-24_15h17.18.728,Continuous,2022.1.1,None,
10,0,10,0,5,0,5,0,,,,,,,,1.12502791083798,frequency,294.0,3.142735198863627,0.00017356042350131703,0,68,[],0.002161666750907898,0.18790156673640013,None,362.7602821001783,362.7602821001783,0.18790156673640013,1.31292947757438,362.9625136000104,362.7602821001783,,,,,,,,,,,eqdcwr,001,fr,0,2022-05-24_15h17.18.728,Continuous,2022.1.1,None,
10,0,10,0,6,0,6,0,,,,,,,,2.597932765687805,frequency,233.0,2.0,0.0002527783121180966,0,69,[],0.006321066990494728,0.19561386667191982,None,364.1220637001097,364.1220637001097,0.19561386667191982,2.7935466323597247,364.3263671998866,364.1220637001097,,,,,,,,,,,eqdcwr,001,fr,0,2022-05-24_15h17.18.728,Continuous,2022.1.1,None,
10,0,10,0,7,0,7,0,,,,,,,,1.7130524333015247,frequency,185.0,0.9459911647011816,0.00035690044274870977,0,70,[],0.006341366562992334,0.19868726655840874,None,366.9556199000217,366.9556199000217,0.19868726655840874,1.9117396998599334,367.1630496000871,366.9556199000217,,,,,,,,,,,eqdcwr,001,fr,0,2022-05-24_15h17.18.728,Continuous,2022.1.1,None,
10,0,10,0,8,0,8,0,,,,,,,,1.7081500594613417,frequency,147.0,1.9153716728850896,0.0006568438037931529,0,71,[],0.0022520669735968113,None,['space'],368.8969753002748,368.8969753002748,0.19874026672914624,1.906890326190488,369.11469609988853,368.8969753002748,[-1.3531856997869909],,,,,,,,,,eqdcwr,001,fr,0,2022-05-24_15h17.18.728,Continuous,2022.1.1,None,
10,0,10,0,9,0,9,0,,,,,,,,2.537816502731385,frequency,,,,1,71,[],0.01508263312280178,None,['space'],370.858228799887,370.858228799887,0.2270324327982962,2.764848935529681,371.0802148003131,370.858228799887,[-1.5224811998195946],,,,,,,,,,eqdcwr,001,fr,0,2022-05-24_15h17.18.728,Continuous,2022.1.1,None,
11,0,11,0,0,0,0,0,,,,,0.16666666666666666,377.4012572001666,None,1.2888534256519062,both,7818.0,2.1938858086663995,0.00022660092099468398,0,36,[],0.012956366874277592,None,['space'],378.4225651002489,None,0.20998806692659855,1.4988414925785047,378.63401179993525,None,[-0.8463922999799252],373.63840540032834,None,,,,,,,,eqdcwr,001,fr,0,2022-05-24_15h17.18.728,Continuous,2022.1.1,None,
11,0,11,0,1,0,1,0,,,,,,,,1.2888534256519062,both,6965.0,0.5558690341486268,0.00016009000996980625,0,37,[],0.005729166325181723,None,None,379.95637500006706,379.95637500006706,0.19926756666973233,1.4881209923216385,380.17177150025964,379.95637500006706,,,,,,,,,,,eqdcwr,001,fr,0,2022-05-24_15h17.18.728,Continuous,2022.1.1,None,
11,0,11,0,2,0,2,0,,,,,,,,1.2888534256519062,both,6205.0,1.4747569342458107,0.000148760755457889,0,38,[],0.005996466614305973,None,None,381.4862172999419,381.4862172999419,0.19669776689261198,1.4855511925445182,381.6914709000848,381.4862172999419,,,,,,,,,,,eqdcwr,001,fr,0,2022-05-24_15h17.18.728,Continuous,2022.1.1,None,
11,0,11,0,3,0,3,0,,,,,,,,1.2888534256519062,both,,,,1,38,[],0.0024029663763940334,0.18823286658152938,['space'],383.0123042999767,383.0123042999767,0.18823286658152938,1.4770862922334356,383.2103540999815,383.0123042999767,[-0.9481009002774954],,,,,,,,,,eqdcwr,001,fr,0,2022-05-24_15h17.18.728,Continuous,2022.1.1,None,
11,0,11,0,4,0,4,0,,,,,,,,1.2888534256519062,both,4925.0,0.0,0.00014758561655417712,0,39,[],0.0036894669756293297,None,['space'],384.5309399999678,384.5309399999678,0.20817336672917008,1.4970267923810763,384.7559324000031,384.5309399999678,[-0.24301719991490245],,,,,,,,,,eqdcwr,001,fr,0,2022-05-24_15h17.18.728,Continuous,2022.1.1,None,
11,0,11,0,5,0,5,0,,,,,,,,1.2888534256519062,both,4388.0,-0.526886997841689,0.00010412512622358792,0,40,[],0.005384466610848904,0.19653056655079126,['space'],386.07709249993786,386.07709249993786,0.19653056655079126,1.4853839922026975,386.28089060029015,386.07709249993786,[-0.9243614999577403],,,,,,,,,,eqdcwr,001,fr,0,2022-05-24_15h17.18.728,Continuous,2022.1.1,None,
11,0,11,0,6,0,6,0,,,,,,,,1.2888534256519062,both,3909.0,-1.2624169640155285,7.120404467044154e-05,0,41,[],0.005585366860032082,None,['space'],387.5965732000768,387.5965732000768,0.20012576691806316,1.4889791925699694,387.80352750001475,387.5965732000768,[-1.2122391001321375],,,,,,,,,,eqdcwr,001,fr,0,2022-05-24_15h17.18.728,Continuous,2022.1.1,None,
11,0,11,0,7,0,7,0,,,,,,,,1.2888534256519062,both,3483.0,-1.8529990411631692,6.0482162145082234e-05,0,42,[],0.015479333233088255,None,['space'],389.12686270009726,389.12686270009726,0.2267664331011474,1.5156198587530536,389.35265200026333,389.12686270009726,[-1.0709979995153844],,,,,,,,,,eqdcwr,001,fr,0,2022-05-24_15h17.18.728,Continuous,2022.1.1,None,
11,0,11,0,8,0,8,0,,,,,,,,1.2888534256519062,both,3103.0,-1.8219795368493366,5.235291878603424e-05,0,43,[],0.005588666535913944,None,None,390.6667487001978,390.6667487001978,0.19843926653265953,1.4872926921845657,390.88048999989405,390.6667487001978,,,,,,,,,,,eqdcwr,001,fr,0,2022-05-24_15h17.18.728,Continuous,2022.1.1,None,
11,0,11,0,9,0,9,0,,,,,,,,1.2888534256519062,both,2764.0,-0.3010752785742823,6.712223937970396e-05,0,44,[],0.0009337672963738441,0.18468136712908745,['space'],392.1928344001062,392.1928344001062,0.18468136712908745,1.4735347927809936,392.39104480016977,392.1928344001062,[-1.048218599986285],,,,,,,,,,eqdcwr,001,fr,0,2022-05-24_15h17.18.728,Continuous,2022.1.1,None,
11,0,11,0,10,0,10,0,,,,,,,,1.2888534256519062,both,2462.0,-0.12253267521134897,8.386163484615326e-05,0,45,[],0.01374673331156373,None,['space'],393.71541010029614,393.71541010029614,0.22568793315440416,1.5145413588063104,393.9394971001893,393.71541010029614,[-0.8912756997160614],,,,,,,,,,eqdcwr,001,fr,0,2022-05-24_15h17.18.728,Continuous,2022.1.1,None,
11,0,11,0,11,0,11,0,,,,,,,,1.2888534256519062,both,2193.0,0.864265703123063,8.736454631072704e-05,0,46,[],0.00543596688657999,None,['space'],395.25478410022333,395.25478410022333,0.19778836704790592,1.4866417926998121,395.4596783001907,395.25478410022333,[-1.0463626999408007],,,,,,,,,,eqdcwr,001,fr,0,2022-05-24_15h17.18.728,Continuous,2022.1.1,None,
11,0,11,0,12,0,12,0,,,,,,,,1.2888534256519062,both,1954.0,1.095037853837058,8.250756747827775e-05,0,47,[],0.01663403306156397,None,"['space', 'space']",396.7834385000169,396.7834385000169,0.23017003294080496,1.5190234585927112,397.00996430031955,396.7834385000169,"[-1.0471234996803105, 0.20106920041143894]",,,,,,,,,,eqdcwr,001,fr,0,2022-05-24_15h17.18.728,Continuous,2022.1.1,None,
12,0,12,0,0,0,0,0,,,,,,407.88070720015094,None,1.7168586953571991,none,2071.0,1.229790479855034,8.800378571188655e-05,0,44,[],0.01251076627522707,None,None,408.9019629000686,None,0.2135312664322555,1.9303899617894547,409.11100149992853,None,,398.3230082001537,None,"[0.16666666666666666, 0.5833333333333334, 0.16666666666666666, 0.5833333333333334, 0.5833333333333334, 0.5833333333333334, 0.3333333333333333, 0.5833333333333334, 0.3333333333333333, 0.3333333333333333, 0.16666666666666666, 0.3333333333333333, 0.3333333333333333, 0.16666666666666666, 0.3333333333333333]",,,,,,,eqdcwr,001,fr,0,2022-05-24_15h17.18.728,Continuous,2022.1.1,None,
12,0,12,0,1,0,1,0,,,,,,,,1.1362995699432747,none,,,,1,44,[],0.002089765854179859,0.1877773660235107,['space'],410.86076710000634,410.86076710000634,0.1877773660235107,1.3240769359667854,411.0654011000879,410.86076710000634,[-1.4930727002210915],,,,,,,,,,eqdcwr,001,fr,0,2022-05-24_15h17.18.728,Continuous,2022.1.1,None,
12,0,12,0,2,0,2,0,,,,,,,,2.052086291870392,none,6965.0,1.6087567587517002,0.00018072099869218103,0,45,[],0.0019373665563762188,None,None,412.2293548001908,412.2293548001908,0.19841656647622585,2.250502858346618,412.4452039003372,412.2293548001908,,,,,,,,,,,eqdcwr,001,fr,0,2022-05-24_15h17.18.728,Continuous,2022.1.1,None,
12,0,12,0,3,0,3,0,,,,,,,,1.4284812396265971,none,2609.0,-0.10247495589291522,7.81938464583758e-05,0,46,[],0.004269866738468409,0.19500956684350967,['space'],414.52542329998687,414.52542329998687,0.19500956684350967,1.6234908064701068,414.7311161002144,414.52542329998687,[-1.7408206998370588],,,,,,,,,,eqdcwr,001,fr,0,2022-05-24_15h17.18.728,Continuous,2022.1.1,None,
12,0,12,0,4,0,4,0,,,,,,,,1.5365208682848694,none,6205.0,1.4461103819259904,0.00014827094228320043,0,47,[],0.005047166720032692,0.1965460665524006,['space'],416.1935982001014,416.1935982001014,0.1965460665524006,1.73306693483727,416.3988550999202,416.1935982001014,[-1.2168625998310745],,,,,,,,,,eqdcwr,001,fr,0,2022-05-24_15h17.18.728,Continuous,2022.1.1,None,
12,0,12,0,5,0,5,0,,,,,,,,1.6424449331305753,none,922.0,1.331105969461579,4.876415175540115e-05,0,48,[],0.0015978668816387653,0.18732496676966548,['space'],417.96743790013716,417.96743790013716,0.18732496676966548,1.8297698999002407,418.1734239999205,417.96743790013716,[-1.2314078002236784],,,,,,,,,,eqdcwr,001,fr,0,2022-05-24_15h17.18.728,Continuous,2022.1.1,None,
12,0,12,0,6,0,6,0,,,,,,,,2.3926209740306716,none,1382.0,2.7768163842544817,7.053147296125662e-05,0,49,[],0.005231666378676891,None,['space'],419.844503399916,419.844503399916,0.2048031664453447,2.5974241404760163,420.04852640023455,419.844503399916,[-1.3721230002120137],,,,,,,,,,eqdcwr,001,fr,0,2022-05-24_15h17.18.728,Continuous,2022.1.1,None,
12,0,12,0,7,0,7,0,,,,,,,,1.5239241243518953,none,366.0,1.21618973303701,9.821348535536938e-05,0,50,[],0.0009313663467764854,None,['space'],422.4749926002696,422.4749926002696,0.21276436652988195,1.7366884908817772,422.6948075001128,422.4749926002696,[-2.2911888998933136],,,,,,,,,,eqdcwr,001,fr,0,2022-05-24_15h17.18.728,Continuous,2022.1.1,None,
12,0,12,0,8,0,8,0,,,,,,,,1.49859597595176,none,4925.0,1.0,0.0001655937853633201,0,51,[],0.005011566448956728,0.19842586619779468,['space'],424.2489299001172,424.2489299001172,0.19842586619779468,1.6970218421495546,424.45642080018297,424.2489299001172,[-1.0566119998693466],,,,,,,,,,eqdcwr,001,fr,0,2022-05-24_15h17.18.728,Continuous,2022.1.1,None,
12,0,12,0,9,0,9,0,,,,,,,,2.4120878495777154,none,548.0,0.6585236114643812,6.89941220371324e-05,0,52,[],0.014855533372610807,None,['space'],425.98277990007773,425.98277990007773,0.22727913316339254,2.639366982741108,426.20648339996114,425.98277990007773,[-1.2545717996545136],,,,,,,,,,eqdcwr,001,fr,0,2022-05-24_15h17.18.728,Continuous,2022.1.1,None,
12,0,12,0,10,0,10,0,,,,,,,,1.3162048838457547,none,3909.0,0.3364637522498706,8.559505982101934e-05,0,53,[],0.0011106664314866066,None,None,428.6435360000469,428.6435360000469,0.20921446662396193,1.5254193504697167,428.8694682000205,428.6435360000469,,,,,,,,,,,eqdcwr,001,fr,0,2022-05-24_15h17.18.728,Continuous,2022.1.1,None,
13,0,13,0,0,0,0,0,,,,,,437.7711455998942,None,1.0077429256226391,none,1072.0,5.409685218710461,8.773503721957513e-05,0,54,[],0.01224956614896655,None,None,438.801532600075,None,0.20643766643479466,1.2141805920574338,439.00789800006896,None,,430.20980850001797,None,"[0.5833333333333334, 0.5833333333333334, 0.3333333333333333, 0.3333333333333333, 0.5833333333333334, 0.3333333333333333, 0.16666666666666666, 0.3333333333333333, 0.16666666666666666, 0.16666666666666666, 0.5833333333333334, 0.3333333333333333, 0.16666666666666666, 0.3333333333333333, 0.3333333333333333]",,,,,,,eqdcwr,001,fr,0,2022-05-24_15h17.18.728,Continuous,2022.1.1,None,
13,0,13,0,1,0,1,0,,,,,,,,1.103506438799819,none,3606.0,0.28755396622596807,7.961650597338245e-05,0,55,[],0.004414166323840618,0.19654326606541872,None,440.0529295001179,440.0529295001179,0.19654326606541872,1.3000497048652377,440.256785500329,440.0529295001179,,,,,,,,,,,eqdcwr,001,fr,0,2022-05-24_15h17.18.728,Continuous,2022.1.1,None,
13,0,13,0,2,0,2,0,,,,,,,,2.8782310080408453,none,1516.0,8.0,0.0001247257701334928,0,56,[],0.00484616681933403,None,['space'],441.38723300024867,441.38723300024867,0.20082596689462662,3.079056974935472,441.6015388001688,441.38723300024867,[-0.6188619998283684],,,,,,,,,,eqdcwr,001,fr,0,2022-05-24_15h17.18.728,Continuous,2022.1.1,None,
13,0,13,0,3,0,3,0,,,,,,,,2.211872828026662,none,5724.0,3.6682391600177535,0.0001922854978284431,0,57,[],0.016580133233219385,None,"['space', 'space', 'space']",444.5111452001147,444.5111452001147,0.2336087329313159,2.445481560957978,444.73739510029554,444.5111452001147,"[-2.4950453001074493, -1.2942515998147428, 0.02545990003272891]",,,,,,,,,,eqdcwr,001,fr,0,2022-05-24_15h17.18.728,Continuous,2022.1.1,None,
13,0,13,0,4,0,4,0,,,,,,,,2.525995924139983,none,1351.0,7.071334707037555,0.00011737740150168402,0,58,[],0.003092466853559017,0.19200986670330167,['space'],446.9780542002991,446.9780542002991,0.19200986670330167,2.718005790843285,447.1795926000923,446.9780542002991,[-1.8741648998111486],,,,,,,,,,eqdcwr,001,fr,0,2022-05-24_15h17.18.728,Continuous,2022.1.1,None,
13,0,13,0,5,0,5,0,,,,,,,,2.3504245140182585,none,1702.0,7.1601955467223615,0.00013991617723945222,0,59,[],0.0009474665857851505,0.18547586677595973,['space'],449.73587989993393,449.73587989993393,0.18547586677595973,2.535900380794218,449.93823370011523,449.73587989993393,[-2.3760175998322666],,,,,,,,,,eqdcwr,001,fr,0,2022-05-24_15h17.18.728,Continuous,2022.1.1,None,
13,0,13,0,6,0,6,0,,,,,,,,1.5857678920414209,none,758.0,4.960403985421078,7.129936395427448e-05,0,60,[],0.0006669666618108749,0.18585526663810015,['space'],452.3191299000755,452.3191299000755,0.18585526663810015,1.771623158679521,452.51691769994795,452.3191299000755,[-2.166757700033486],,,,,,,,,,eqdcwr,001,fr,0,2022-05-24_15h17.18.728,Continuous,2022.1.1,None,
13,0,13,0,7,0,7,0,,,,,,,,2.600081180160835,none,955.0,5.853879064011437,8.392055385835859e-05,0,61,[],0.0019538667984306812,0.1895734667778015,None,454.1349172000773,454.1349172000773,0.1895734667778015,2.7896546469386365,454.34534509992227,454.1349172000773,,,,,,,,,,,eqdcwr,001,fr,0,2022-05-24_15h17.18.728,Continuous,2022.1.1,None,
13,0,13,0,8,0,8,0,,,,,,,,1.0190707017504943,none,319.0,4.5590650645274415,0.00016494003692283922,0,62,[],0.004478866700083017,None,['space'],456.97050249995664,456.97050249995664,0.1947231669910252,1.2137938687415195,457.17529179994017,456.97050249995664,[-2.362834900151938],,,,,,,,,,eqdcwr,001,fr,0,2022-05-24_15h17.18.728,Continuous,2022.1.1,None,
13,0,13,0,9,0,9,0,,,,,,,,1.009089488691466,none,402.0,6.478129204397201,0.00016117449995318097,0,63,[],0.0013483664952218533,None,None,458.22811549995095,458.22811549995095,0.2116343667730689,1.220723855464535,458.45828570006415,458.22811549995095,,,,,,,,,,,eqdcwr,001,fr,0,2022-05-24_15h17.18.728,Continuous,2022.1.1,None,
13,0,13,0,10,0,10,0,,,,,,,,1.200653864290887,none,2550.0,2.9019441746176344,0.0001156287971205811,0,64,[],0.0031682667322456837,0.1946370666846633,['space'],459.4900352000259,459.4900352000259,0.1946370666846633,1.3952909309755503,459.69391890009865,459.4900352000259,[-0.7064441000111401],,,,,,,,,,eqdcwr,001,fr,0,2022-05-24_15h17.18.728,Continuous,2022.1.1,None,
13,0,13,0,11,0,11,0,,,,,,,,1.718465466917875,none,,,,1,64,[],0.0009912666864693165,0.18726766668260098,['space'],460.9276879001409,460.9276879001409,0.18726766668260098,1.905733133600476,461.1342529999092,460.9276879001409,[-0.9920612997375429],,,,,,,,,,eqdcwr,001,fr,0,2022-05-24_15h17.18.728,Continuous,2022.1.1,None,
13,0,13,0,12,0,12,0,,,,,,,,2.098152162424305,none,506.0,3.71131063733852,0.00010809564887014684,0,65,[],0.00555306626483798,None,['space'],462.8890611999668,462.8890611999668,0.19687756663188338,2.2950297290561883,463.0951845003292,462.8890611999668,[-1.5930323000065982],,,,,,,,,,eqdcwr,001,fr,0,2022-05-24_15h17.18.728,Continuous,2022.1.1,None,
13,0,13,0,13,0,13,0,,,,,,,,1.5730501380810302,none,3213.0,-0.21028284387954255,6.8447798745271e-05,0,66,[],0.002965366467833519,0.19561276631429791,['space'],465.22975519998,465.22975519998,0.19561276631429791,1.7686629043953281,465.434660800267,465.22975519998,[-1.7175239995121956],,,,,,,,,,eqdcwr,001,fr,0,2022-05-24_15h17.18.728,Continuous,2022.1.1,None,
13,0,13,0,14,0,14,0,,,,,,,,1.09296951296921,none,213.0,5.894174047682926,0.0004730103388002134,0,67,[],0.013497933745384216,None,['space'],467.0433184001595,467.0433184001595,0.22802963387221098,1.320999146841421,467.2696382002905,467.0433184001595,[-1.3788136998191476],,,,,,,,,,eqdcwr,001,fr,0,2022-05-24_15h17.18.728,Continuous,2022.1.1,None,
14,0,14,0,0,0,0,0,,,,,0.5833333333333334,478.5852316003293,None,1.9995824151960262,frequency,1411.0,4.31335158488339,8.29971529494426e-05,0,72,[],0.012859966605901718,None,None,479.62802769988775,None,0.21355396648868918,2.2131363816847154,479.8348334999755,None,,468.3929862999357,None,,,,,,,,eqdcwr,001,fr,0,2022-05-24_15h17.18.728,Continuous,2022.1.1,None,
14,0,14,0,1,0,1,0,,,,,,,,1.3553358685878436,frequency,942.0,1.2301344930529645,4.885548294332889e-05,0,73,[],0.0001276661641895771,0.1841426664032042,['space'],481.8701836001128,481.8701836001128,0.1841426664032042,1.5394785349910478,482.0716790999286,481.8701836001128,[-1.7658727997913957],,,,,,,,,,eqdcwr,001,fr,0,2022-05-24_15h17.18.728,Continuous,2022.1.1,None,
14,0,14,0,2,0,2,0,,,,,,,,1.0151613447527903,frequency,629.0,-0.5349153493495982,4.825545119528333e-05,0,74,[],0.003177066333591938,0.19280476635321975,None,483.46582829998806,483.46582829998806,0.19280476635321975,1.20796611110601,483.672655900009,483.46582829998806,,,,,,,,,,,eqdcwr,001,fr,0,2022-05-24_15h17.18.728,Continuous,2022.1.1,None,
14,0,14,0,3,0,3,0,,,,,,,,2.3383127199956735,frequency,420.0,1.5925988262841144,9.073261847903705e-05,0,75,[],0.004048666451126337,None,None,484.71545989997685,484.71545989997685,0.2007414666004479,2.5390541865961214,484.9226104002446,484.71545989997685,,,,,,,,,,,eqdcwr,001,fr,0,2022-05-24_15h17.18.728,Continuous,2022.1.1,None,
14,0,14,0,4,0,4,0,,,,,,,,2.956737853518324,frequency,280.0,0.10923205076988651,0.0001374177686513383,0,76,[],0.01611053291708231,None,None,487.2956664999947,487.2956664999947,0.22991893300786614,3.18665678652619,487.5218336000107,487.2956664999947,,,,,,,,,,,eqdcwr,001,fr,0,2022-05-24_15h17.18.728,Continuous,2022.1.1,None,
14,0,14,0,5,0,5,0,,,,,,,,1.0452808512358824,frequency,187.0,0.04772521265700069,0.00031451129538579125,0,77,[],0.016133233439177275,None,['space'],490.5083373002708,490.5083373002708,0.22999463370069861,1.275275484936581,490.7327038003132,490.5083373002708,[-0.4041987997479737],,,,,,,,,,eqdcwr,001,fr,0,2022-05-24_15h17.18.728,Continuous,2022.1.1,None,
14,0,14,0,6,0,6,0,,,,,,,,2.0648367938125647,frequency,125.0,0.0,0.000722719885372964,0,78,[],0.0038918666541576385,None,['space'],491.8071336001158,491.8071336001158,0.19547206675633788,2.2603088605689026,492.0213628001511,491.8071336001158,[-0.5434005996212363],,,,,,,,,,eqdcwr,001,fr,0,2022-05-24_15h17.18.728,Continuous,2022.1.1,None,
14,0,14,0,7,0,7,0,,,,,,,,2.2025521851957066,frequency,,,,1,78,[],0.0003834664821624756,0.18498726654797792,['space'],494.1105833998881,494.1105833998881,0.18498726654797792,2.3875394517436845,494.3194738002494,494.1105833998881,[-1.158321799710393],,,,,,,,,,eqdcwr,001,fr,0,2022-05-24_15h17.18.728,Continuous,2022.1.1,None,
15,0,15,0,0,0,0,0,,,,,,502.65229770028964,None,2.7195731012266497,time,7127.0,2.3655784307142316,0.000203621861039006,0,57,[],0.013032166287302971,None,None,503.6849684002809,None,0.212845666334033,2.9324187675606828,503.8959356001578,None,,496.5495738000609,None,"[0.3333333333333333, 0.5833333333333334, 0.5833333333333334, 0.5833333333333334, 0.16666666666666666, 0.5833333333333334, 0.16666666666666666, 0.5833333333333334, 0.16666666666666666, 0.16666666666666666, 0.3333333333333333, 0.5833333333333334, 0.5833333333333334, 0.5833333333333334, 0.16666666666666666]",,,,,,,eqdcwr,001,fr,0,2022-05-24_15h17.18.728,Continuous,2022.1.1,None,
15,0,15,0,1,0,1,0,,,,,,,,2.7195731012266497,time,750.0,1.3733156422731139,4.7603160369584127e-05,0,58,[],0.0001576668582856655,0.183627066668123,None,506.64557290030643,506.64557290030643,0.183627066668123,2.9032001678947728,506.8438189001754,506.64557290030643,,,,,,,,,,,eqdcwr,001,fr,0,2022-05-24_15h17.18.728,Continuous,2022.1.1,None,
15,0,15,0,2,0,2,0,,,,,,,,2.7195731012266497,time,2829.0,-1.0621781684784075,5.791661505711631e-05,0,59,[],6.386637687683105e-05,0.18281236616894603,None,509.5963808000088,509.5963808000088,0.18281236616894603,2.9023854673955958,509.8007857003249,509.5963808000088,,,,,,,,,,,eqdcwr,001,fr,0,2022-05-24_15h17.18.728,Continuous,2022.1.1,None,
15,0,15,0,3,0,3,0,,,,,,,,2.7195731012266497,time,8000.0,2.0,0.0002285440948074376,0,60,[],0.0037921667098999023,None,['space'],512.5470730001107,512.5470730001107,0.19806686649098992,2.9176399677176397,512.7506885998882,512.5470730001107,[-2.474572699982673],,,,,,,,,,eqdcwr,001,fr,0,2022-05-24_15h17.18.728,Continuous,2022.1.1,None,
15,0,15,0,4,0,4,0,,,,,,,,2.7195731012266497,time,2520.0,1.9692940334753353,0.00010619517689310483,0,61,[],0.016165333334356546,None,None,515.5048919003457,515.5048919003457,0.2281103334389627,2.9476834346656124,515.7288174000569,515.5048919003457,,,,,,,,,,,eqdcwr,001,fr,0,2022-05-24_15h17.18.728,Continuous,2022.1.1,None,
15,0,15,0,5,0,5,0,,,,,,,,2.7195731012266497,time,1123.0,4.284930726840789,8.057248252118567e-05,0,62,[],5.3666066378355026e-05,None,['space'],518.4723185999319,518.4723185999319,0.21179656637832522,2.931369667604975,518.701505899895,518.4723185999319,[-2.5363926999270916],,,,,,,,,,eqdcwr,001,fr,0,2022-05-24_15h17.18.728,Continuous,2022.1.1,None,
15,0,15,0,6,0,6,0,,,,,,,,2.7195731012266497,time,,,,1,62,[],0.00016176654025912285,0.18316756654530764,"['space', 'space']",521.4441607999615,521.4441607999615,0.18316756654530764,2.9027406677719574,521.6449416000396,521.4441607999615,"[-2.364356499630958, 0.11619760002940893]",,,,,,,,,,eqdcwr,001,fr,0,2022-05-24_15h17.18.728,Continuous,2022.1.1,None,
15,0,15,0,7,0,7,0,,,,,,,,2.7195731012266497,time,4238.0,0.920525187930221,0.00011153121713390307,0,63,[],0.0009648664854466915,None,None,524.3926638001576,524.3926638001576,0.21187786664813757,2.9314509678747873,524.6172406002879,524.3926638001576,,,,,,,,,,,eqdcwr,001,fr,0,2022-05-24_15h17.18.728,Continuous,2022.1.1,None,
15,0,15,0,8,0,8,0,,,,,,,,2.7195731012266497,time,1682.0,2.350464993948151,7.923951209500878e-05,0,64,[],0.00010886648669838905,0.1830214667133987,['space'],527.3655799999833,527.3655799999833,0.1830214667133987,2.9025945679400484,527.562335500028,527.3655799999833,[-2.3735909000970423],,,,,,,,,,eqdcwr,001,fr,0,2022-05-24_15h17.18.728,Continuous,2022.1.1,None,
16,0,16,0,0,0,0,0,,,,,0.3333333333333333,537.6381904999726,None,1.8050928734827003,frequency,6204.0,1.4429016225733162,0.00014816053371146661,0,79,[],0.012880566529929638,None,['space'],538.6690597003326,None,0.21504226652905345,2.020135140011754,538.8793470002711,None,[-3.341455299872905],530.3145308000967,None,,,,,,,,eqdcwr,001,fr,0,2022-05-24_15h17.18.728,Continuous,2022.1.1,None,
16,0,16,0,1,0,1,0,,,,,,,,1.0866345733011509,frequency,4924.0,-2.010978341324343,0.00011702875836383383,0,80,[],0.016652433667331934,None,['space'],540.7166643003002,540.7166643003002,0.22549793357029557,1.3121325068714464,540.9353100000881,540.7166643003002,[-1.4128854000009596],,,,,,,,,,eqdcwr,001,fr,0,2022-05-24_15h17.18.728,Continuous,2022.1.1,None,
16,0,16,0,2,0,2,0,,,,,,,,1.618608409916782,frequency,3908.0,-2.8583116019860118,5.9240312100910086e-05,0,81,[],0.016407033428549767,None,['space'],542.0470992000774,542.0470992000774,0.22766243340447545,1.8462708433212573,542.2749081002548,542.0470992000774,[-0.7435463001020253],,,,,,,,,,eqdcwr,001,fr,0,2022-05-24_15h17.18.728,Continuous,2022.1.1,None,
16,0,16,0,3,0,3,0,,,,,,,,2.8788755194869333,frequency,3102.0,-4.289048924565007,3.935051894201772e-05,0,82,[],0.015599032863974571,None,"['space', 'space']",543.9200578001328,543.9200578001328,0.2245190325193107,3.103394552006244,544.1486180000938,543.9200578001328,"[-1.2637206995859742, 0.1443223999813199]",,,,,,,,,,eqdcwr,001,fr,0,2022-05-24_15h17.18.728,Continuous,2022.1.1,None,
16,0,16,0,4,0,4,0,,,,,,,,1.8964478249330514,frequency,2462.0,-5.0,4.782885214758115e-05,0,83,[],0.01580963283777237,None,['space'],547.0518503999338,547.0518503999338,0.22548803268000484,2.1219358576130563,547.2728730002418,547.0518503999338,[-0.8602868998423219],,,,,,,,,,eqdcwr,001,fr,0,2022-05-24_15h17.18.728,Continuous,2022.1.1,None,
16,0,16,0,5,0,5,0,,,,,,,,1.6344854940125857,frequency,1954.0,-4.256789765318231,4.4555610865342064e-05,0,84,[],0.002938666380941868,0.1926902667619288,None,549.2007194999605,549.2007194999605,0.1926902667619288,1.8271757607745145,549.4077751003206,549.2007194999605,,,,,,,,,,,eqdcwr,001,fr,0,2022-05-24_15h17.18.728,Continuous,2022.1.1,None,
16,0,16,0,6,0,6,0,,,,,,,,1.2363918343788687,frequency,1551.0,-4.637173874099123,3.0847363231357e-05,0,85,['frequency'],0.0028213667683303356,0.19207306671887636,None,551.0695511000231,551.0695511000231,0.19207306671887636,1.428464901097745,551.2765514999628,551.0695511000231,,,,,"{'estimation': [[125.0, -1.467896127461242], [133.9716828170366, -1.9044751357324539], [143.5872943746293, -1.8457116096855097], [153.89305166811442, -1.2723755838449433], [156.81968014871822, -1.0], [164.93848884661162, -0.27337782727419413], [167.47914174883311, 0.0], [176.77669529663666, 0.9663234585983705], [177.1083489491814, 1.0], [187.15237748476798, 2.0], [189.46457081379947, 2.2229103249808166], [199.28397249200412, 3.0], [203.0630990890585, 3.292771038281405], [216.56780814108382, 4.0], [217.6376408240306, 4.055290686467982], [233.25824788420132, 4.501400801226832], [249.99999999999937, 4.712650177604556], [267.94336563407256, 4.825460844584455], [287.1745887492579, 4.9599107467553285], [291.06119904947195, 5.0], [307.78610333622805, 5.168883869821402], [329.87697769322244, 5.409040961761159], [353.55339059327247, 5.562157200016182], [378.929141627598, 5.479341347527702], [406.12619817811606, 5.032229022230541], [407.16384150535487, 5.0], [435.2752816480601, 4.167611900214586], [439.30498691161, 4.0], [464.0966689308529, 2.9999999999999996], [466.5164957684015, 2.9058666864776357], [485.73219939298065, 2.0], [499.9999999999975, 1.348595245311932], [507.1434108928472, 1.0], [527.8702054506458, 0.0], [535.8867312681438, -0.3731530703694365], [549.5277828052743, -1.0], [571.8253195208081, -2.0], [574.3491774985143, -2.109454102458126], [596.697308441274, -3.0], [615.5722066724546, -3.721379557073308], [624.3380668248968, -4.0], [656.990822753019, -5.0], [659.7539553864432, -5.081426132704721], [703.9644700403285, -6.000000000000001], [707.1067811865431, -6.062591718638818], [757.8582832551941, -6.54621778733984], [812.2523963562301, -6.427571643893689], [843.5712274094668, -6.0], [870.5505632961181, -5.649236118911535], [898.692279613246, -5.0], [933.0329915368008, -4.2343940786891086], [941.0226823693265, -4.0], [975.1570732789569, -3.0], [999.9999999999914, -2.297971880917423], [1009.4701582778432, -2.0], [1040.9137524816988, -1.0], [1071.7734625362837, -0.051348537714378376], [1073.5012425336804, 0.0], [1106.793366490586, 1.0], [1140.6653425957231, 2.0], [1148.698354997026, 2.226936586550932], [1179.8523259322737, 3.0], [1220.8511763905174, 4.0], [1231.1444133449063, 4.2409726425221645], [1275.3701058368983, 5.0], [1319.5079107728848, 5.730472356195839], [1351.162470898209, 6.0], [1414.2135623730828, 6.5189119085096525], [1515.7165665103828, 6.527060236123853], [1592.2230072326306, 6.0], [1624.5047927124563, 5.784644887828732], [1690.6372339165985, 5.0], [1741.1011265922318, 4.413916960413731], [1769.551089699294, 4.0], [1837.6953552014515, 3.0000000000000004], [1866.065983073597, 2.5925487469520894], [1904.990037967403, 2.0], [1969.5718207576333, 1.0], [1999.9999999999802, 0.5384695693679372], [2037.63435029793, 0.0], [2106.445696466943, -1.0], [2143.5469250725646, -1.5279495146052666], [2182.049995609566, -2.0], [2263.52724594318, -2.9999999999999996], [2297.396709994046, -3.4047272691645443], [2360.585236507693, -4.0], [2462.2888266898062, -4.927659104689104], [2473.7229052049806, -5.0], [2639.01582154576, -5.995966317350966], [2640.2567742467522, -6.0], [2828.427124746159, -6.575587741026659], [3031.4331330207656, -6.700855195475233], [3249.0095854249043, -6.466026490278818], [3475.4489261413382, -6.0], [3482.2022531844555, -5.986847766637921], [3732.1319661471844, -5.381187930751224], [3883.4055428907373, -5.0], [3999.9999999999554, -4.718691741171917], [4287.093850145118, -4.02558755057142], [4297.229313728734, -4.0], [4594.7934199880865, -3.275841541983901], [4697.196795626955, -3.0], [4924.577653379601, -2.4101960043448827], [5061.315189135474, -2.0], [5278.031643091513, -1.3774036635118359], [5391.451208237288, -1.0], [5656.854249492297, -0.15557098551922385], [5700.906558487949, 0.0], [5992.97063030743, 1.0], [6062.866266041508, 1.2282973789509257], [6287.793962087609, 2.0], [6498.019170849792, 2.6936006064947837], [6595.448144701849, 3.0], [6919.648412370107, 4.0], [6964.404506368894, 4.133701911707291], [7299.6087593059965, 5.0], [7464.2639322943505, 5.420910033480279], [7770.572943482248, 6.0], [7999.999999999882, 6.448142327446478]], 'plus_line': [[125.00000000000007, -6.5786546704081665], [133.9716828170366, -6.772290460890427], [143.5872943746293, -6.648586776520961], [153.8930516681143, -6.0277312710583955], [154.16975165459345, -6.0], [164.64904473580995, -5.0], [164.93848884661162, -4.97373301545098], [173.88453872442835, -4.0], [176.77669529663666, -3.6940459081369488], [183.71925890459752, -3.0], [189.46457081379947, -2.435486383520278], [195.14343118199068, -2.0], [203.0630990890585, -1.4092751625930582], [211.39273102078897, -1.0], [217.6376408240306, -0.7085293793641949], [233.25824788420132, -0.32250447789968106], [249.99999999999952, -0.1453404344002765], [267.94336563407256, -0.058497353931759845], [277.8890778631759, 0.0], [287.1745887492579, 0.04865629181388442], [307.78610333622805, 0.22830639607726366], [329.87697769322244, 0.46112829477638617], [353.55339059327247, 0.6381682327766847], [378.929141627598, 0.597138945540187], [406.12619817811606, 0.19851130731886513], [412.8159942894963, 0.0], [435.2752816480601, -0.6517077563684817], [443.5596963739833, -1.0], [466.5164957684015, -1.922255006521401], [468.08394448885605, -2.0], [488.222143319972, -3.0], [499.9999999999975, -3.5430509163746615], [508.81400542761037, -4.0], [528.7814682912095, -5.0], [535.8867312681438, -5.335454301531662], [549.4546629003593, -6.0], [571.2855147996514, -7.000000000000001], [574.3491774985143, -7.1350725429458], [594.943611362966, -8.0], [615.5722066724546, -8.796342531972236], [621.8797014540093, -9.0], [653.899133729371, -10.0], [659.7539553864432, -10.175184634017896], [699.6941466738962, -11.0], [707.1067811865431, -11.149528324072074], [757.8582832551941, -11.61162644449976], [812.2523963562301, -11.449743076242566], [842.4931740756375, -11.0], [870.5505632961181, -10.609883354281921], [896.0510533555657, -10.0], [933.0329915368008, -9.11295738478244], [936.8578073058393, -9.0], [970.709524634481, -8.0], [999.9999999999926, -7.101051987387088], [1003.2673243105072, -7.0], [1035.2718561606068, -6.0], [1065.288282791915, -5.0], [1071.773462536285, -4.794210678778143], [1099.1663339584918, -4.0], [1131.3758718928348, -3.0], [1148.698354997026, -2.4732990518204794], [1168.2493214646438, -2.0], [1208.0088117146402, -1.0], [1231.1444133449063, -0.42280469369221246], [1255.6829016073864, 0.0], [1313.2847014362753, 1.0], [1319.5079107728832, 1.1037545823118373], [1414.2135623730828, 1.9063274378650588], [1515.7165665103864, 1.9110471076970708], [1624.5047927124563, 1.12914189206827], [1634.5449713191608, 1.0], [1712.5160155477781, 0.0], [1741.1011265922318, -0.34853667549902656], [1780.5808567252948, -1.0], [1843.589085638162, -2.0], [1866.065983073597, -2.3372572503888076], [1903.601845952662, -3.0], [1961.640754306854, -4.0], [1999.9999999999802, -4.609428076584562], [2023.7968277392242, -5.0], [2084.536606770726, -6.0], [2143.5469250725646, -6.881671018741223], [2152.264191842872, -7.0], [2225.1162186934316, -8.0], [2297.396709994046, -8.899070645927512], [2307.6389146177066, -9.0], [2410.775506851172, -10.0], [2462.2888266898062, -10.46284825136], [2555.5197410446794, -11.0], [2639.0158215457564, -11.459439607170047], [2828.427124746159, -11.898070839587014], [3031.433133020758, -11.881625763407927], [3249.0095854249043, -11.530132573488945], [3458.8817929924576, -11.0], [3482.2022531844555, -10.94635961233621], [3732.1319661471844, -10.28983762708801], [3842.6546383431128, -10.0], [3999.9999999999504, -9.616004432785704], [4259.448127949197, -9.0], [4287.093850145118, -8.938182948219726], [4594.793419988081, -8.225045170432395], [4677.11412890783, -8.0], [4924.577653379601, -7.357891309241678], [5037.359395330056, -7.0], [5278.031643091506, -6.2648621999654655], [5352.289469856006, -6.0], [5638.665517508327, -5.0], [5656.854249492303, -4.939528163815745], [5915.546694837767, -4.0], [6062.866266041508, -3.4718883951769746], [6195.845401469946, -3.0], [6475.943007988387, -2.0], [6498.019170849792, -1.9248181758246448], [6795.948029023477, -1.0], [6964.404506368902, -0.4778637608381316], [7162.934915544145, 0.0], [7464.2639322943505, 0.724470937233512], [7666.5696362454455, 1.0], [7999.999999999882, 1.4503861237966171]], 'minus_line': [[125.0, 3.5561294107977237], [131.7973331889428, 3.0], [133.9716828170366, 2.842264127191706], [143.5872943746293, 2.8433120627210706], [146.32762665159424, 3.0000000000000004], [153.89305166811442, 3.4381954798519607], [159.91217459144627, 4.0], [164.93848884661162, 4.45787193358634], [169.85452545003994, 5.0], [176.77669529663666, 5.728110995107482], [179.32163048062395, 6.0], [189.03649118238312, 7.0], [189.46457081379947, 7.043072579698593], [200.52305678115795, 8.0], [203.0630990890585, 8.21285011932045], [216.67926649477684, 9.0], [217.6376408240306, 9.055557977460333], [233.25824788420132, 9.565560862502252], [249.99999999999937, 9.800262241933531], [267.94336563407256, 9.93373717845921], [275.3030006736032, 10.0], [287.1745887492579, 10.113517843195483], [307.78610333622805, 10.385148138474722], [329.87697769322244, 10.673562395069473], [353.55339059327247, 10.843003491121328], [378.929141627598, 10.744286519296198], [406.12619817811606, 10.248284737175583], [413.5709558689335, 10.0], [435.2752816480601, 9.318025259697812], [442.62338165671554, 9.0], [466.11016536767573, 8.0], [466.5164957684015, 7.9834872958311704], [487.1661715216996, 7.000000000000001], [499.9999999999975, 6.385881673165778], [507.88650661713723, 6.0], [528.0722125942954, 5.0], [535.8867312681438, 4.6205942256569], [549.3696128136436, 4.0], [570.5987174921252, 3.0], [574.3491774985143, 2.8303038027580585], [594.8476138856083, 2.0], [615.5722066724546, 1.1537014648463888], [620.1584511514153, 1.0], [650.7039820654481, 0.0], [659.7539553864432, -0.2853022968599847], [690.8267286900377, -1.0], [707.1067811865431, -1.3540497921204384], [757.8582832551941, -1.9247051850453927], [812.2523963562301, -1.866688250649522], [870.5505632961192, -1.128226810752931], [876.0172278258368, -1.0], [919.5489449090696, 0.0], [933.0329915368008, 0.29060868027734466], [955.9291677950803, 1.0], [990.3337420896829, 2.0], [999.9999999999926, 2.262736374861812], [1021.5558919812757, 3.0000000000000004], [1052.0839185798002, 4.0], [1071.773462536285, 4.58180824345612], [1084.747030652443, 5.000000000000001], [1115.7184764358396, 6.0], [1148.698354997026, 6.939119546590554], [1151.008679447779, 7.000000000000001], [1188.0656465931304, 8.0], [1229.6584846369792, 9.0], [1231.1444133449063, 9.034594499638404], [1284.31917138595, 10.0], [1319.5079107728832, 10.589276525544163], [1367.8142339255069, 11.0], [1414.2135623730828, 11.39208724488098], [1515.7165665103846, 11.386312859469921], [1569.165551970327, 11.0], [1624.5047927124563, 10.62740212408945], [1678.4647663811136, 10.0], [1741.1011265922318, 9.271825942620794], [1761.0836848580063, 9.0], [1832.8739779576633, 8.0], [1866.065983073597, 7.53217502313885], [1904.7943910348479, 7.0], [1973.4768312916258, 6.0], [1999.9999999999777, 5.611837965122854], [2047.630325915408, 5.0], [2120.742600480335, 4.0], [2143.5469250725646, 3.6887288189107], [2204.598060808443, 3.0], [2288.839234020834, 2.0], [2297.396709994049, 1.9007364328902663], [2395.8888713844062, 1.0], [2462.2888266898062, 0.38844304802624197], [2520.390813438371, 0.0], [2639.01582154576, -0.7646863767638528], [2698.2241084615202, -1.0], [2828.427124746159, -1.4734299910046391], [3031.4331330207615, -1.7415959422066742], [3249.0095854249043, -1.6297735776157576], [3482.2022531844555, -1.260356046537849], [3604.2022503315116, -1.0], [3732.1319661471844, -0.7288301217611559], [3999.9999999999504, -0.11198420144418637], [4045.33871260452, 0.0], [4287.093850145118, 0.590660038697754], [4449.845013825789, 1.0], [4594.793419988081, 1.3614468073909394], [4836.963237123561, 2.0], [4924.577653379601, 2.226777796952529], [5194.290620650901, 3.0], [5278.031643091506, 3.2311622984955126], [5519.4142239686935, 4.0], [5656.854249492303, 4.412980913693341], [5826.34732038968, 5.0], [6062.866266041508, 5.764918692988433], [6129.5652819782445, 6.0], [6422.37740714887, 7.0], [6498.019170849792, 7.243706996511896], [6725.508238887362, 8.0], [6964.404506368902, 8.742280287500973], [7052.378185187045, 9.0], [7397.306236536519, 10.0], [7464.2639322943505, 10.188869316834777], [7776.551410411889, 11.0], [7999.999999999882, 11.579904100186287]]}",,,,,,eqdcwr,001,fr,0,2022-05-24_15h17.18.728,Continuous,2022.1.1,None,
16,0,16,0,7,0,7,0,,,,,,,,1.8552760562451425,frequency,1231.0,4.148382060409939,8.659856896715165e-05,0,86,['frequency'],0.013927333056926727,None,['space'],552.5399500001222,552.5399500001222,0.22582883294671774,2.0811048891918604,552.7686511999927,552.5399500001222,[-0.9721076996065676],,,,,,,,,,eqdcwr,001,fr,0,2022-05-24_15h17.18.728,Continuous,2022.1.1,None,
16,0,16,0,8,0,8,0,,,,,,,,1.325709133028552,frequency,,,,1,86,['frequency'],0.01500873314216733,None,['space'],554.6496838000603,554.6496838000603,0.22430623322725296,1.550015366255805,554.87658130005,554.6496838000603,[-1.5055017000995576],,,,,,,,,,eqdcwr,001,fr,0,2022-05-24_15h17.18.728,Continuous,2022.1.1,None,
16,0,16,0,9,0,9,0,,,,,,,,2.379310677579551,frequency,775.0,-3.934302074843946,2.5115091528343697e-05,0,87,['frequency'],0.015602833591401577,None,None,556.2268326003104,556.2268326003104,0.22637463361024857,2.6056853111897995,556.4545936002396,556.2268326003104,,,,,,,,,,,eqdcwr,001,fr,0,2022-05-24_15h17.18.728,Continuous,2022.1.1,None,
16,0,16,0,10,0,10,0,,,,,,,,2.5397317154411843,frequency,615.0,-1.1842390714373099,4.668524217566428e-05,0,88,['frequency'],0.014788433443754911,None,None,558.862738400232,558.862738400232,0.2275296333245933,2.7672613487657776,559.0848314999603,558.862738400232,,,,,,,,,,,eqdcwr,001,fr,0,2022-05-24_15h17.18.728,Continuous,2022.1.1,None,
16,0,16,0,11,0,11,0,,,,,,,,1.929078111146865,frequency,488.0,-2.3677763145085935,5.4864640528356065e-05,0,89,['frequency'],0.015188733115792274,None,None,561.6534979003482,561.6534979003482,0.22723193280398846,2.156310043950853,561.8750954000279,561.6534979003482,,,,,,,,,,,eqdcwr,001,fr,0,2022-05-24_15h17.18.728,Continuous,2022.1.1,None,
16,0,16,0,12,0,12,0,,,,,,,,1.9096050412473322,frequency,387.0,2.7542827164721926,0.00010975393260160319,0,90,['frequency'],0.000579566229134798,0.18930146610364318,None,563.8331744000316,563.8331744000316,0.18930146610364318,2.0989065073509754,564.0369381001219,563.8331744000316,,,,,,,,,,,eqdcwr,001,fr,0,2022-05-24_15h17.18.728,Continuous,2022.1.1,None,
17,0,17,0,0,0,0,0,,,,,,589.4795548999682,None,2.170179942905274,time,435.0,-29.0,2.652797316831141e-06,0,65,['frequency'],0.012933167163282633,None,['space'],590.49691920029,None,0.21194856707006693,2.382128509975341,590.7024077000096,None,[-0.8312615999020636],565.9712652000599,None,"[0.3333333333333333, 0.5833333333333334, 0.3333333333333333, 0.5833333333333334, 0.5833333333333334, 0.16666666666666666, 0.16666666666666666, 0.5833333333333334, 0.3333333333333333, 0.3333333333333333, 0.3333333333333333, 0.5833333333333334, 0.5833333333333334, 0.5833333333333334, 0.5833333333333334]",,,,,,,eqdcwr,001,fr,0,2022-05-24_15h17.18.728,Continuous,2022.1.1,None,
17,0,17,0,1,0,1,0,,,,,,,,2.170179942905274,time,230.0,-20.01619066408514,2.0628164906959717e-05,0,66,['frequency'],0.010180532932281494,None,None,592.9119901000522,592.9119901000522,0.21753073297441006,2.387710675879684,593.1323514999822,592.9119901000522,,,,,,,,,,,eqdcwr,001,fr,0,2022-05-24_15h17.18.728,Continuous,2022.1.1,None,
17,0,17,0,2,0,2,0,,,,,,,,2.170179942905274,time,3478.0,-28.90805950249141,2.6814198787170585e-06,0,67,['frequency'],0.010705933440476656,None,None,595.3306189998984,595.3306189998984,0.21875163353979588,2.38893157644507,595.5523169003427,595.3306189998984,,,,,,,,,,,eqdcwr,001,fr,0,2022-05-24_15h17.18.728,Continuous,2022.1.1,None,
17,0,17,0,3,0,3,0,,,,,,,,2.170179942905274,time,1549.0,-13.089753093106987,1.161962489226967e-05,0,68,['frequency'],0.0013217669911682606,0.19631226686760783,None,597.7525108000264,597.7525108000264,0.19631226686760783,2.3664922097728818,597.9577490999363,597.7525108000264,,,,,,,,,,,eqdcwr,001,fr,0,2022-05-24_15h17.18.728,Continuous,2022.1.1,None,
17,0,17,0,4,0,4,0,,,,,,,,2.170179942905274,time,2321.0,-25.494482877121268,4.352165875210547e-06,0,69,['frequency'],0.014299733564257622,None,None,600.1624655001797,600.1624655001797,0.22379613341763616,2.39397607632291,600.3921308000572,600.1624655001797,,,,,,,,,,,eqdcwr,001,fr,0,2022-05-24_15h17.18.728,Continuous,2022.1.1,None,
17,0,17,0,5,0,5,0,,,,,,,,2.170179942905274,time,548.0,-6.052764513950695,3.186014047106822e-05,0,70,['frequency'],0.01636923337355256,None,['space'],602.5907705002464,602.5907705002464,0.2297459333203733,2.3999258762256472,602.8102651000954,602.5907705002464,[-0.9352478999644518],,,,,,,,,,eqdcwr,001,fr,0,2022-05-24_15h17.18.728,Continuous,2022.1.1,None,
17,0,17,0,6,0,6,0,,,,,,,,2.170179942905274,time,183.0,-12.211947948420914,8.024587127286713e-05,0,71,['frequency'],3.656698390841484e-05,0.18583016702905297,['space'],605.0095596001484,605.0095596001484,0.18583016702905297,2.356010109934327,605.2131246002391,605.0095596001484,[-0.5053277998231351],,,,,,,,,,eqdcwr,001,fr,0,2022-05-24_15h17.18.728,Continuous,2022.1.1,None,
17,0,17,0,7,0,7,0,,,,,,,,2.170179942905274,time,1034.0,-19.961256368016198,4.567785938245146e-06,0,72,['frequency'],0.010790933389216661,None,None,607.4107952001505,607.4107952001505,0.2204242330044508,2.3906041759097247,607.6318453000858,607.4107952001505,,,,,,,,,,,eqdcwr,001,fr,0,2022-05-24_15h17.18.728,Continuous,2022.1.1,None,
17,0,17,0,8,0,8,0,,,,,,,,2.170179942905274,time,345.0,-26.676621160639026,4.2112591290320035e-06,0,73,['frequency'],0.0010631666518747807,0.192375966347754,None,609.8310869000852,609.8310869000852,0.192375966347754,2.362555909253028,610.0363242002204,609.8310869000852,,,,,,,,,,,eqdcwr,001,fr,0,2022-05-24_15h17.18.728,Continuous,2022.1.1,None,
17,0,17,0,9,0,9,0,,,,,,,,2.170179942905274,time,690.0,-14.596690934184279,8.550811900764235e-06,0,74,['frequency'],0.012899233028292656,None,None,612.2454752000049,612.2454752000049,0.21106813289225101,2.381248075797525,612.4645608998835,612.2454752000049,,,,,,,,,,,eqdcwr,001,fr,0,2022-05-24_15h17.18.728,Continuous,2022.1.1,None,
17,0,17,0,10,0,10,0,,,,,,,,2.170179942905274,time,,,,1,74,['frequency'],0.014176533557474613,None,None,614.6745779002085,614.6745779002085,0.23345133336260915,2.403631276267883,614.9056575000286,614.6745779002085,,,,,,,,,,,eqdcwr,001,fr,0,2022-05-24_15h17.18.728,Continuous,2022.1.1,None,
17,0,17,0,11,0,11,0,,,,,,,,2.170179942905274,time,205.0,-3.9009627930039605,0.00016315159506469004,0,75,['frequency'],0.01570723345503211,None,None,617.0989045002498,617.0989045002498,0.22800403321161866,2.3981839761168926,617.3121231999248,617.0989045002498,,,,,,,,,,,eqdcwr,001,fr,0,2022-05-24_15h17.18.728,Continuous,2022.1.1,None,
18,0,18,0,0,0,0,0,,,,,,626.6341018001549,None,2.737377761077286,none,1190.0,4.642123635609671,8.873728995294311e-05,0,68,['frequency'],0.012635166756808758,None,None,627.6600391999818,None,0.23465076694265008,2.972028528019936,627.8862017001957,None,,619.5206162999384,None,"[0.5833333333333334, 0.3333333333333333, 0.3333333333333333, 0.3333333333333333, 0.3333333333333333, 0.3333333333333333, 0.3333333333333333, 0.16666666666666666, 0.5833333333333334, 0.5833333333333334, 0.5833333333333334, 0.3333333333333333, 0.3333333333333333, 0.3333333333333333, 0.5833333333333334]",,,,,,,eqdcwr,001,fr,0,2022-05-24_15h17.18.728,Continuous,2022.1.1,None,
18,0,18,0,1,0,1,0,,,,,,,,1.556946571745397,none,5339.0,2.8794649125090195,0.00019537121484091495,0,69,['frequency'],0.010094333440065384,None,"['space', 'space']",630.6520521999337,630.6520521999337,0.21782313333824277,1.7747697050836397,630.8773003001697,630.6520521999337,"[-2.3164248997345567, 0.1802034000866115]",,,,,,,,,,eqdcwr,001,fr,0,2022-05-24_15h17.18.728,Continuous,2022.1.1,None,
18,0,18,0,2,0,2,0,,,,,,,,1.0835342062446636,none,1888.0,4.335019799128052,0.00011490106675649629,0,70,['frequency'],0.013591333292424679,None,None,632.4653945001774,632.4653945001774,0.22437263326719403,1.3079068395118576,632.6879906002432,632.4653945001774,,,,,,,,,,,eqdcwr,001,fr,0,2022-05-24_15h17.18.728,Continuous,2022.1.1,None,
18,0,18,0,3,0,3,0,,,,,,,,2.693303704826573,none,2379.0,0.6027250638455592,8.91925064665115e-05,0,71,['frequency'],0.01026523346081376,None,['space'],633.8064537001774,633.8064537001774,0.22473363345488906,2.918037338281462,634.0324842003174,633.8064537001774,[-0.9028811999596655],,,,,,,,,,eqdcwr,001,fr,0,2022-05-24_15h17.18.728,Continuous,2022.1.1,None,
18,0,18,0,4,0,4,0,,,,,,,,2.2012454290940155,none,2997.0,-0.7636296890814258,5.038054204454293e-05,0,72,['frequency'],0.014230633620172739,None,['space'],636.7536357003264,636.7536357003264,0.22654073359444737,2.427786162688463,636.982133100275,636.7536357003264,[-2.5614122999832034],,,,,,,,,,eqdcwr,001,fr,0,2022-05-24_15h17.18.728,Continuous,2022.1.1,None,
18,0,18,0,5,0,5,0,,,,,,,,2.8737335920476546,none,1499.0,3.219633905888421,7.001238343158347e-05,0,73,['frequency'],0.009405833203345537,None,['space'],639.2119320002384,639.2119320002384,0.22122263303026557,3.09495622507792,639.4388365000486,639.2119320002384,[-2.044428000226617],,,,,,,,,,eqdcwr,001,fr,0,2022-05-24_15h17.18.728,Continuous,2022.1.1,None,
18,0,18,0,6,0,6,0,,,,,,,,1.3842493030025875,none,,,,1,73,['frequency'],0.01417293306440115,None,['space'],642.3411083002575,642.3411083002575,0.22785193286836147,1.612101235870949,642.5648376001045,642.3411083002575,[-1.773483700118959],,,,,,,,,,eqdcwr,001,fr,0,2022-05-24_15h17.18.728,Continuous,2022.1.1,None,
18,0,18,0,7,0,7,0,,,,,,,,1.3124844097699206,none,4757.0,1.0095694260698997,0.00015279218529294232,0,74,['frequency'],0.014429932925850153,None,None,643.9787886999547,643.9787886999547,0.2257408332079649,1.5382252429778855,644.2038217000663,643.9787886999547,,,,,,,,,,,eqdcwr,001,fr,0,2022-05-24_15h17.18.728,Continuous,2022.1.1,None,
18,0,18,0,8,0,8,0,,,,,,,,2.5857772065479647,none,8000.0,3.0,0.0002564306919956826,0,75,['frequency'],0.01010063337162137,None,['space'],645.5509580001235,645.5509580001235,0.21880483301356435,2.804582039561529,645.7726300000213,645.5509580001235,[-0.966928199864924],,,,,,,,,,eqdcwr,001,fr,0,2022-05-24_15h17.18.728,Continuous,2022.1.1,None,
19,0,19,0,0,0,0,0,,,,,,656.5831732000224,None,1.7181386359084017,none,235.0,4.02847637606399,0.00031304344787720575,0,76,['frequency'],0.01292836619541049,None,None,657.6108407001011,None,0.21065186616033316,1.9287905020687348,657.8203809000552,None,,648.393457500264,None,"[0.16666666666666666, 0.3333333333333333, 0.3333333333333333, 0.3333333333333333, 0.5833333333333334, 0.16666666666666666, 0.5833333333333334, 0.16666666666666666, 0.3333333333333333, 0.3333333333333333, 0.5833333333333334, 0.3333333333333333, 0.3333333333333333, 0.16666666666666666, 0.3333333333333333]",,,,,,,eqdcwr,001,fr,0,2022-05-24_15h17.18.728,Continuous,2022.1.1,None,
19,0,19,0,1,0,1,0,,,,,,,,2.3230108401286835,none,373.0,4.690713462550914,0.00014340157972168792,0,77,['frequency'],0.013605932705104351,None,None,659.5749111999758,659.5749111999758,0.22470533289015293,2.5477161730188365,659.7992233000696,659.5749111999758,,,,,,,,,,,eqdcwr,001,fr,0,2022-05-24_15h17.18.728,Continuous,2022.1.1,None,
19,0,19,0,2,0,2,0,,,,,,,,2.6023008615023997,none,125.0,5.0,0.0012851978913844323,0,78,['frequency'],0.009981933049857616,None,['space'],662.1519422000274,662.1519422000274,0.22072133282199502,2.8230221943243947,662.3766903001815,662.1519422000274,[-0.08819930022582412],,,,,,,,,,eqdcwr,001,fr,0,2022-05-24_15h17.18.728,Continuous,2022.1.1,None,
19,0,19,0,3,0,3,0,,,,,,,,1.1398913061144686,none,296.0,4.618480563102195,0.00020209580879156793,0,79,['frequency'],0.013173133600503206,None,None,665.0088525000028,665.0088525000028,0.2141326335258782,1.3540239396403468,665.2336054001935,665.0088525000028,,,,,,,,,,,eqdcwr,001,fr,0,2022-05-24_15h17.18.728,Continuous,2022.1.1,None,
19,0,19,0,4,0,4,0,,,,,,,,1.9956423117132855,none,419.0,4.414221388658826,0.00012564299146514493,0,80,['frequency'],0.009880832862108946,None,['space'],666.4064707001671,666.4064707001671,0.2218742328695953,2.217516544582881,666.6328563001007,666.4064707001671,[-1.1024762000888586],,,,,,,,,,eqdcwr,001,fr,0,2022-05-24_15h17.18.728,Continuous,2022.1.1,None,
19,0,19,0,5,0,5,0,,,,,,,,1.4648363782500249,none,,,,1,80,['frequency'],0.016309533268213272,None,['space'],668.6605254001915,668.6605254001915,0.20876133302226663,1.6735977112722915,668.8665554001927,668.6605254001915,[-1.5328604998067021],,,,,,,,,,eqdcwr,001,fr,0,2022-05-24_15h17.18.728,Continuous,2022.1.1,None,
19,0,19,0,6,0,6,0,,,,,,,,2.3762813001499232,none,157.0,2.944985191704121,0.0006145462181614696,0,81,['frequency'],0.014750733505934477,None,None,670.3678675000556,670.3678675000556,0.22354253381490707,2.5998238339648303,670.5960921002552,670.3678675000556,,,,,,,,,,,eqdcwr,001,fr,0,2022-05-24_15h17.18.728,Continuous,2022.1.1,None,
19,0,19,0,7,0,7,0,,,,,,,,1.6536665771078722,none,528.0,3.4072049725188633,9.929602337001215e-05,0,82,['frequency'],0.012538433074951172,None,['space'],673.0010947999544,673.0010947999544,0.22381913335993886,1.877485710467811,673.2248241999187,673.0010947999544,[-2.105008800048381],,,,,,,,,,eqdcwr,001,fr,0,2022-05-24_15h17.18.728,Continuous,2022.1.1,None,
20,0,20,0,0,0,0,0,,,,,,689.496204700321,None,1.4687643623580702,time,208.0,-28.04741105367876,9.889343536909394e-06,0,76,['frequency'],0.01302796695381403,None,None,690.5334991002455,None,0.20753706665709615,1.6763014290151663,690.7440527998842,None,,674.9099938003346,None,"[0.3333333333333333, 0.5833333333333334, 0.16666666666666666, 0.3333333333333333, 0.3333333333333333, 0.3333333333333333, 0.16666666666666666, 0.5833333333333334, 0.5833333333333334, 0.5833333333333334, 0.3333333333333333, 0.16666666666666666, 0.5833333333333334, 0.3333333333333333, 0.16666666666666666]",,,,,,,eqdcwr,001,fr,0,2022-05-24_15h17.18.728,Continuous,2022.1.1,None,
20,0,20,0,1,0,1,0,,,,,,,,1.4687643623580702,time,147.0,-11.012467221538504,0.0001482757613622692,0,77,['frequency'],0.013376433402299881,None,None,692.2416722001508,692.2416722001508,0.22583153331652284,1.694595895674593,692.46032690024,692.2416722001508,,,,,,,,,,,eqdcwr,001,fr,0,2022-05-24_15h17.18.728,Continuous,2022.1.1,None,
20,0,20,0,2,0,2,0,,,,,,,,1.4687643623580702,time,990.0,-22.278759580851748,3.366828208657233e-06,0,78,['frequency'],0.012505633290857077,None,None,693.9651171001606,693.9651171001606,0.223166533280164,1.6919308956382342,694.1832622000948,693.9651171001606,,,,,,,,,,,eqdcwr,001,fr,0,2022-05-24_15h17.18.728,Continuous,2022.1.1,None,
20,0,20,0,3,0,3,0,,,,,,,,1.4687643623580702,time,467.0,-30.0,2.3126018201697534e-06,0,79,['frequency'],0.012931933626532555,None,['space'],695.6830343003385,695.6830343003385,0.22291863383725286,1.691682996195323,695.9056114000268,695.6830343003385,[-0.3138556000776589],,,,,,,,,,eqdcwr,001,fr,0,2022-05-24_15h17.18.728,Continuous,2022.1.1,None,
20,0,20,0,4,0,4,0,,,,,,,,1.4687643623580702,time,1483.0,-16.886038747966367,6.973428131078675e-06,0,80,['frequency'],0.012513133231550455,None,None,697.4023842001334,697.4023842001334,0.22515603294596076,1.693920395304031,697.6233459999785,697.4023842001334,,,,,,,,,,,eqdcwr,001,fr,0,2022-05-24_15h17.18.728,Continuous,2022.1.1,None,
20,0,20,0,5,0,5,0,,,,,,,,1.4687643623580702,time,185.0,-26.32091459285026,1.5459726227552343e-05,0,81,['frequency'],0.012336733285337687,None,None,699.1207054001279,699.1207054001279,0.22500633355230093,1.693770695910371,699.3435109001584,699.1207054001279,,,,,,,,,,,eqdcwr,001,fr,0,2022-05-24_15h17.18.728,Continuous,2022.1.1,None,
20,0,20,0,6,0,6,0,,,,,,,,1.4687643623580702,time,2097.0,-19.692413004365115,7.973623803000831e-06,0,82,['frequency'],0.009454932995140553,None,None,700.8433399000205,700.8433399000205,0.22079763328656554,1.6895619956446357,701.0643986002542,700.8433399000205,,,,,,,,,,,eqdcwr,001,fr,0,2022-05-24_15h17.18.728,Continuous,2022.1.1,None,
20,0,20,0,7,0,7,0,,,,,,,,1.4687643623580702,time,312.0,-11.928954180699572,2.5780857264977373e-05,0,83,['frequency'],0.013278833590447903,None,None,702.5635692002252,702.5635692002252,0.22562093334272504,1.6943852957007952,702.7845171000808,702.5635692002252,,,,,,,,,,,eqdcwr,001,fr,0,2022-05-24_15h17.18.728,Continuous,2022.1.1,None,
20,0,20,0,8,0,8,0,,,,,,,,1.4687643623580702,time,882.0,-10.001433687712225,1.2867924029093755e-05,0,84,['frequency'],0.012155033182352781,None,None,704.2833358002827,704.2833358002827,0.22741473279893398,1.6961790951570042,704.5087838000618,704.2833358002827,,,,,,,,,,,eqdcwr,001,fr,0,2022-05-24_15h17.18.728,Continuous,2022.1.1,None,
20,0,20,0,9,0,9,0,,,,,,,,1.4687643623580702,time,,,,1,84,['frequency'],0.013424932956695557,None,None,706.0101520000026,706.0101520000026,0.22702683322131634,1.6957911955793865,706.2371686999686,706.0101520000026,,,,,,,,,,,eqdcwr,001,fr,0,2022-05-24_15h17.18.728,Continuous,2022.1.1,None,
