tTrials.thisRepN,tTrials.thisTrialN,tTrials.thisN,tTrials.thisIndex,blocks.thisRepN,blocks.thisTrialN,blocks.thisN,blocks.thisIndex,trials.thisRepN,trials.thisTrialN,trials.thisN,trials.thisIndex,tStart_text.started,tStart_text.stopped,Prediction,practice_Frequency,practice_Level,practice_Psychopy_Level,practice_isCatchTrial,Practice_trial_detection,practice_Cue_Delays,practice_Cue_Frequencies,practice_Interval,practice_Cue_Intensities,tCue_visual_cue.started,tCue_visual_cue.stopped,tProbe_visual_cue.started,tProbe_visual_cue.stopped,tFeedback.keys,tFeedback.corr,tFeedback.rt,tFeedback.started,tFeedback.stopped,tToo_late.keys,tToo_late.corr,tToo_early.keys,tToo_early.corr,more_instructions.started,more_instructions.stopped,readyy.keys,readyy.rt,readyy.started,readyy.stopped,txt_rhythm.started,txt_rhythm.stopped,sound_1.started,sound_1.stopped,sound_2.started,sound_2.stopped,sound_3.started,sound_3.stopped,sound_4.started,sound_4.stopped,cross.started,cross.stopped,sound_5.started,sound_5.stopped,circle.started,circle.stopped,rhythm_ready.keys,rhythm_ready.rt,rhythm_ready.started,rhythm_ready.stopped,rhytm_ready_txt.started,rhytm_ready_txt.stopped,txt_freq.started,txt_freq.stopped,sound_6.started,sound_6.stopped,sound_7.started,sound_7.stopped,sound_8.started,sound_8.stopped,sound_9.started,sound_9.stopped,cross_2.started,cross_2.stopped,sound_10.started,sound_10.stopped,circle_2.started,circle_2.stopped,freq_ready.keys,freq_ready.rt,freq_ready.started,freq_ready.stopped,freq_ready_txt.started,freq_ready_txt.stopped,txt_freq_2.started,txt_freq_2.stopped,sound_11.started,sound_11.stopped,sound_12.started,sound_12.stopped,sound_13.started,sound_13.stopped,sound_14.started,sound_14.stopped,cross_3.started,cross_3.stopped,sound_15.started,sound_15.stopped,circle_3.started,circle_3.stopped,freq_ready_2.keys,freq_ready_2.rt,freq_ready_2.started,freq_ready_2.stopped,freq_ready_txt_2.started,freq_ready_txt_2.stopped,txt_freq_3.started,txt_freq_3.stopped,sound_16.started,sound_16.stopped,sound_17.started,sound_17.stopped,sound_18.started,sound_18.stopped,sound_19.started,sound_19.stopped,cross_4.started,cross_4.stopped,sound_20.started,sound_20.stopped,circle_4.started,circle_4.stopped,freq_ready_txt_3.started,freq_ready_txt_3.stopped,tStart_text_2.started,tStart_text_2.stopped,this_trial_is.started,this_trial_is.stopped,Frequency,Level,Psychopy_Level,Real trial detection,Cue Delays,Cue Frequencies,Interval,Cue Intensities,Catch trial,cue_visual_cue.started,cue_visual_cue.stopped,probe_visual_cue.started,probe_visual_cue.stopped,feedback.keys,feedback.corr,feedback.rt,feedback.started,feedback.stopped,answer_too_late.keys,answer_too_late.corr,answer_too_early.keys,answer_too_early.corr,Catch trial answer,answer_too_late.rt,answer_too_early.rt,Audiogram_both,Audiogram_time,Audiogram_none,Audiogram_frequency,goodbye_text.started,goodbye_text.stopped,key_resp.keys,key_resp.rt,key_resp.started,key_resp.stopped,participant,session,Language (english or french),Skip training? (1 for yes),Resume previous experiment,date,expName,psychopyVersion,frameRate,
0,0,0,0,,,,,,,,,14.904510000022128,None,both,1000,30,0.0013930605843148849,False,1,"[0.46306709196124607, 0.46306709196124607, 0.46306709196124607, 0.46306709196124607]","[396.85026299205003, 500.00000000000017, 629.9605249474367, 793.7005259840998]",Major_3rd,"[30, 30, 30, 30]",34.7461252999492,37.05919419997372,37.05919419997372,38.28720159991644,['space'],1,[0.46973560005426407],37.05919419997372,38.73170490004122,None,1,None,1,,,,,,,,,,,,,,,,,,,,,,,,,,,,,,,,,,,,,,,,,,,,,,,,,,,,,,,,,,,,,,,,,,,,,,,,,,,,,,,,,,,,,,,,,,,,,,,,,,,,,,,,,,,,,,,,,,,,,,,,,,,,,,,,,,luctew,001,fr,0,0,2022-05-12_15h03.34.149,Cluster,2022.1.1,35.364680596551814,
1,0,1,0,,,,,,,,,,,both,2500,30,0.002716251657462167,False,1,"[0.5975644490333352, 0.5975644490333352, 0.5975644490333352, 0.5975644490333352]","[1574.901312368591, 1767.7669529663685, 1984.2513149602491, 2227.246795350848]",Tone,"[30, 30, 30, 30]",47.2369359000586,49.947165600024164,49.947165600024164,51.1741100999061,['space'],1,[0.4140352001413703],49.947165600024164,51.755404700059444,None,1,None,1,,,,,,,,,,,,,,,,,,,,,,,,,,,,,,,,,,,,,,,,,,,,,,,,,,,,,,,,,,,,,,,,,,,,,,,,,,,,,,,,,,,,,,,,,,,,,,,,,,,,,,,,,,,,,,,,,,,,,,,,,,,,,,,,,,luctew,001,fr,0,0,2022-05-12_15h03.34.149,Cluster,2022.1.1,35.364680596551814,
2,0,2,0,,,,,,,,,,,frequency,6000,30,0.003664122665694519,True,1,"[0.5553204589068048, 0.6680192830462972, 0.6429908320971759, 0.608067473155153]","[2381.1015779523, 3000.000000000001, 3779.76314968462, 4762.203155904599]",Major_3rd,"[30, 30, 30, 30]",54.87091189995408,57.671411799965426,57.671411799965426,58.893129099858925,None,1,,57.671411799965426,59.48308959999122,None,1,None,1,,,,,,,,,,,,,,,,,,,,,,,,,,,,,,,,,,,,,,,,,,,,,,,,,,,,,,,,,,,,,,,,,,,,,,,,,,,,,,,,,,,,,,,,,,,,,,,,,,,,,,,,,,,,,,,,,,,,,,,,,,,,,,,,,,luctew,001,fr,0,0,2022-05-12_15h03.34.149,Cluster,2022.1.1,35.364680596551814,
3,0,3,0,,,,,,,,,,,time,440,30,0.0023562289915021436,False,1,"[0.6828701343645975, 0.6828701343645975, 0.6828701343645975, 0.6828701343645975]","[1146.7125892763156, 2686.3958421399716, 169.85238764582, 658.8956128939498]",None,"[30, 30, 30, 30]",65.76101699983701,68.74295399989933,68.74295399989933,69.95456249988638,['space'],1,[1.0739248001482338],68.74295399989933,70.65013560000807,None,1,None,1,,,,,,,,,,,,,,,,,,,,,,,,,,,,,,,,,,,,,,,,,,,,,,,,,,,,,,,,,,,,,,,,,,,,,,,,,,,,,,,,,,,,,,,,,,,,,,,,,,,,,,,,,,,,,,,,,,,,,,,,,,,,,,,,,,luctew,001,fr,0,0,2022-05-12_15h03.34.149,Cluster,2022.1.1,35.364680596551814,
4,0,4,0,,,,,,,,,,,both,250,30,0.005296268625886445,True,1,"[0.6554778346397746, 0.6554778346397746, 0.6554778346397746, 0.6554778346397746]","[396.85026299205003, 353.5533905932739, 314.98026247371837, 280.6155120773433]",Tone,"[30, 30, 30, 30]",74.48774169990793,77.37638629996218,77.37638629996218,78.5856798000168,None,1,,77.37638629996218,79.23617210006341,None,1,None,1,,,,,,,,,,,,,,,,,,,,,,,,,,,,,,,,,,,,,,,,,,,,,,,,,,,,,,,,,,,,,,,,,,,,,,,,,,,,,,,,,,,,,,,,,,,,,,,,,,,,,,,,,,,,,,,,,,,,,,,,,,,,,,,,,,luctew,001,fr,0,0,2022-05-12_15h03.34.149,Cluster,2022.1.1,35.364680596551814,
,,,,,,,,,,,,,,,,,,,,,,,,,,,,,,,,,,,,,85.21603069989942,None,space,17.84139610012062,85.21603069989942,None,,,,,,,,,,,,,,,,,,,,,,,,,,,,,,,,,,,,,,,,,,,,,,,,,,,,,,,,,,,,,,,,,,,,,,,,,,,,,,,,,,,,,,,,,,,,,,,,,,,,,,,,,,,,,,,,,,,,,,,,,,,,luctew,001,fr,0,0,2022-05-12_15h03.34.149,Cluster,2022.1.1,35.364680596551814,
,,,,,,,,,,,,,,,,,,,,,,,,,,,,,,,,,,,,,,,,,,,103.10437639988959,104.12143639987335,104.55598653003108,None,105.08531502995174,None,105.57584263000172,105.79185279994272,106.07176773005631,None,104.46952569996938,106.26327449991368,106.58467612985987,106.8082296999637,106.26327449991368,107.07680239994079,space,2.0279976001475006,107.28515059989877,None,,,,,,,,,,,,,,,,,,,,,,,,,,,,,,,,,,,,,,,,,,,,,,,,,,,,,,,,,,,,,,,,,,,,,,,,,,,,,,,,,,,,,,,,,,,,,,,,,,,,,,,,luctew,001,fr,0,0,2022-05-12_15h03.34.149,Cluster,2022.1.1,35.364680596551814,
,,,,,,,,,,,,,,,,,,,,,,,,,,,,,,,,,,,,,,,,,,,,,,,,,,,,,,,,,,,,,,,107.28515059989877,None,109.3731753998436,110.39760420005769,110.83965262991842,None,111.1325047299033,None,111.83150962984655,None,112.2278940299293,112.44814100000076,110.72324569988996,112.53943190001883,112.83002612984274,113.04839299991727,112.53943190001883,113.34583460004069,space,1.2406187001615763,113.5518296000082,None,,,,,,,,,,,,,,,,,,,,,,,,,,,,,,,,,,,,,,,,,,,,,,,,,,,,,,,,,,,,,,,,,,,,,,,,,,,,,,,,,,luctew,001,fr,0,0,2022-05-12_15h03.34.149,Cluster,2022.1.1,35.364680596551814,
,,,,,,,,,,,,,,,,,,,,,,,,,,,,,,,,,,,,,,,,,,,,,,,,,,,,,,,,,,,,,,,,,,,,,,,,,,,,,,,,,,,,,113.5518296000082,None,114.85169070004486,115.87716569984332,116.30145492998417,None,116.81972242996562,None,117.30055132985581,None,117.8208911299007,None,116.21435020002536,118.00719859986566,118.32068392995279,None,118.00719859986566,118.82788280001841,space,1.21618920029141,118.99280989984982,None,,,,,,,,,,,,,,,,,,,,,,,,,,,,,,,,,,,,,,,,,,,,,,,,,,,,,,,,,,,,luctew,001,fr,0,0,2022-05-12_15h03.34.149,Cluster,2022.1.1,35.364680596551814,
,,,,0,0,0,0,0,0,0,0,,,time,,,,,,,,,,,,,,,,,,,,,,,,,,,,,,,,,,,,,,,,,,,,,,,,,,,,,,,,,,,,,,,,,,,,,,,,,,,,,,,,,,,,,,,,,,,,,118.99280989984982,None,120.2461856000591,121.24875949998386,121.69539212982636,None,122.01593053003307,122.23580570006743,122.70623942988459,122.92841339996085,123.10610233002808,123.33179219998419,121.60856610001065,123.38726569991559,123.70546583004761,None,123.38726569991559,124.21228919993155,124.39099429990165,None,125.42199019994587,None,145.7232516000513,None,1797.1135303758315,14.0,0.00032903357235522686,1,"[0.7247095155727817, 0.7247095155727817, 0.7247095155727817, 0.7247095155727817]","[3264.234161472737, 153.12342036847312, 624.7084649058229, 2868.580088109458]",None,"[8.0, 6.432035943248767, 18.86074235851716, 10.669625497967333]",False,146.72724070004188,149.92682019993663,149.92682019993663,151.1415069999639,['space'],1,[0.36915540019981563],3.9058031397871673,4.9147041398100555,None,1,None,1,,,,,,,,,,,,,,luctew,001,fr,0,0,2022-05-12_15h03.34.149,Cluster,2022.1.1,35.364680596551814,
,,,,0,0,0,0,1,0,1,0,,,time,,,,,,,,,,,,,,,,,,,,,,,,,,,,,,,,,,,,,,,,,,,,,,,,,,,,,,,,,,,,,,,,,,,,,,,,,,,,,,,,,,,,,,,,,,,,,,,,,,,,,,,,,,,,,,,,,,,151.68490789993666,None,189.4645708137998,15.0,0.0017084605332667944,1,"[0.5151869339808293, 0.5151869339808293, 0.5151869339808293, 0.5151869339808293]","[181.36938692188363, 910.803571865983, 1184.3775047033591, 4427.298615140025]",None,"[7.0, 16.00155315542841, 17.0, 7.072038840080568]",False,153.41926530003548,155.9943829998374,155.9943829998374,157.21331020002253,['space'],1,[0.2650254999753088],3.089213319355622,4.119686719495803,None,1,None,1,,,,,,,,,,,,,,luctew,001,fr,0,0,2022-05-12_15h03.34.149,Cluster,2022.1.1,35.364680596551814,
,,,,0,0,0,0,2,0,2,0,,,both,,,,,,,,,,,,,,,,,,,,,,,,,,,,,,,,,,,,,,,,,,,,,,,,,,,,,,,,,,,,,,,,,,,,,,,,,,,,,,,,,,,,,,,,,,,,,,,,,,,,,,,,,,,,,,,,,,,157.57889100001194,None,374.8245917923166,10.351771473087013,0.00027361382638042066,1,"[0.41595165425146474, 0.41595165425146474, 0.41595165425146474, 0.41595165425146474]","[1888.997572869571, 1260.7546223483835, 841.4527581198565, 561.6023384698412]",Perfect_5th,"[19.919337459087675, 18.0, 17.0, 18.5574965404976]",False,158.56929859984666,160.85076669999398,160.85076669999398,162.08575930004008,['space'],1,[0.3094410002231598],2.674098639981821,3.692980040097609,None,1,None,1,,,,,,,,,,,,,,luctew,001,fr,0,0,2022-05-12_15h03.34.149,Cluster,2022.1.1,35.364680596551814,
,,,,0,0,0,0,3,0,3,0,,,both,,,,,,,,,,,,,,,,,,,,,,,,,,,,,,,,,,,,,,,,,,,,,,,,,,,,,,,,,,,,,,,,,,,,,,,,,,,,,,,,,,,,,,,,,,,,,,,,,,,,,,,,,,,,,,,,,,,162.30189509992488,None,176.7766952966369,15.0,0.0019683126003941904,1,"[0.6798165959338167, 0.6798165959338167, 0.6798165959338167, 0.6798165959338167]","[280.61551207734334, 250.00000000000006, 222.72467953508487, 198.42513149602496]",Tone,"[18.0, 16.631434731510733, 13.0, 10.0]",False,163.78526699985377,166.85620669997297,166.85620669997297,168.0921398999635,['space'],1,[0.10172370029613376],3.7484108495991677,4.754691449692473,None,1,None,1,,,,,,,,,,,,,,luctew,001,fr,0,0,2022-05-12_15h03.34.149,Cluster,2022.1.1,35.364680596551814,
,,,,0,0,0,0,4,0,4,0,,,time,,,,,,,,,,,,,,,,,,,,,,,,,,,,,,,,,,,,,,,,,,,,,,,,,,,,,,,,,,,,,,,,,,,,,,,,,,,,,,,,,,,,,,,,,,,,,,,,,,,,,,,,,,,,,,,,,,,168.58177220006473,None,301.5126398905701,12.0,0.0004495018788010874,1,"[0.5881363520983766, 0.5881363520983766, 0.5881363520983766, 0.5881363520983766]","[2794.404338498411, 2566.1012462528556, 1584.0282145118988, 328.5592332717771]",None,"[11.0, 13.0, 20.567105356731734, 17.479758446912495]",False,169.57986759999767,172.36079020006582,172.36079020006582,173.59801630000584,['space'],1,[0.29888970009051263],3.3791286398191005,4.400624739937484,None,1,None,1,,,,,,,,,,,,,,luctew,001,fr,0,0,2022-05-12_15h03.34.149,Cluster,2022.1.1,35.364680596551814,
,,,,0,0,0,0,5,0,5,0,,,time,,,,,,,,,,,,,,,,,,,,,,,,,,,,,,,,,,,,,,,,,,,,,,,,,,,,,,,,,,,,,,,,,,,,,,,,,,,,,,,,,,,,,,,,,,,,,,,,,,,,,,,,,,,,,,,,,,,174.02880409988575,None,,,,,"[0.6412378569706217, 0.6412378569706217, 0.6412378569706217, 0.6412378569706217]","[162.44568655887304, 173.41504102836524, 143.7600986526439, 1489.40830096282]",None,"[6.07765557616859, 6.695539679502874, 7.662260161472233, 20.0]",True,175.02102630003355,177.9663074000273,177.9663074000273,179.189449199941,None,1,,3.5742753397207707,4.582887139637023,None,1,None,1,0,,,,,,,,,,,,,luctew,001,fr,0,0,2022-05-12_15h03.34.149,Cluster,2022.1.1,35.364680596551814,
,,,,0,0,0,0,6,0,6,0,,,none,,,,,,,,,,,,,,,,,,,,,,,,,,,,,,,,,,,,,,,,,,,,,,,,,,,,,,,,,,,,,,,,,,,,,,,,,,,,,,,,,,,,,,,,,,,,,,,,,,,,,,,,,,,,,,,,,,,179.64217250002548,None,2733.3410361563037,5.0,0.00012696008579255954,0,"[0.7437685767211965, 0.6033278369260754, 0.4612073273917811, 0.5633996136874141]","[941.5354504356217, 4761.893745953603, 798.0575086365977, 489.72056385470506]",None,"[16.0, 7.646420842152193, 17.07425568908256, 17.0]",False,180.6563609999139,183.50669249985367,183.50669249985367,184.72536140005104,None,0,,3.4076381400227547,4.420769939897582,None,1,None,1,,,,,,,,,,,,,,luctew,001,fr,0,0,2022-05-12_15h03.34.149,Cluster,2022.1.1,35.364680596551814,
,,,,0,0,0,0,7,0,7,0,,,frequency,,,,,,,,,,,,,,,,,,,,,,,,,,,,,,,,,,,,,,,,,,,,,,,,,,,,,,,,,,,,,,,,,,,,,,,,,,,,,,,,,,,,,,,,,,,,,,,,,,,,,,,,,,,,,,,,,,,185.1200134998653,None,3420.505573321725,1.3342903225985396,8.601629560406065e-05,1,"[0.575878609291709, 0.5110365493428306, 0.7114020332119441, 0.5381821568522501]","[5429.714145353997, 4837.3253719643435, 4309.566973110774, 3839.38769208433]",Tone,"[7.7998269890940355, 7.646420842152193, 7.072038840080568, 6.94486050210244]",False,186.1325107999146,188.94647939992137,188.94647939992137,190.18130329996347,['space'],1,[0.39859000011347234],3.3728725395631045,4.406220339704305,None,1,None,1,,,,,,,,,,,,,,luctew,001,fr,0,0,2022-05-12_15h03.34.149,Cluster,2022.1.1,35.364680596551814,
,,,,0,0,0,0,8,0,8,0,,,frequency,,,,,,,,,,,,,,,,,,,,,,,,,,,,,,,,,,,,,,,,,,,,,,,,,,,,,,,,,,,,,,,,,,,,,,,,,,,,,,,,,,,,,,,,,,,,,,,,,,,,,,,,,,,,,,,,,,,190.58345979987644,None,176.7766952966369,15.0,0.0019683126003941904,1,"[0.5918519263676922, 0.6115351272217215, 0.4732682008541593, 0.6230269310187637]","[445.44935907016975, 353.55339059327383, 280.6155120773433, 222.72467953508485]",Major_3rd,"[16.220717981261956, 16.85773133919742, 18.0, 13.0]",False,192.25175639986992,194.95328969997354,194.95328969997354,196.19205680000596,['space'],1,[0.3343059001490474],3.3317524294834584,4.36204172950238,None,1,None,1,,,,,,,,,,,,,,luctew,001,fr,0,0,2022-05-12_15h03.34.149,Cluster,2022.1.1,35.364680596551814,
,,,,0,0,0,0,9,0,9,0,,,frequency,,,,,,,,,,,,,,,,,,,,,,,,,,,,,,,,,,,,,,,,,,,,,,,,,,,,,,,,,,,,,,,,,,,,,,,,,,,,,,,,,,,,,,,,,,,,,,,,,,,,,,,,,,,,,,,,,,,196.6673351000063,None,267.67537572457866,11.722294426952526,0.0005735785678575453,1,"[0.48869822226722603, 0.7521950622408345, 0.6555147600585502, 0.6573982419115463]","[168.62492020695785, 189.2750733315065, 212.45408650558957, 238.4716491107608]",Tone,"[6.07765557616859, 8.201958806113415, 12.0, 15.0]",False,197.68003689986654,200.59218759997748,200.59218759997748,201.82765950006433,['space'],1,[0.21515230019576848],3.5698585398495197,4.5918864398263395,None,1,None,1,,,,,,,,,,,,,,luctew,001,fr,0,0,2022-05-12_15h03.34.149,Cluster,2022.1.1,35.364680596551814,
,,,,0,0,0,0,10,0,10,0,,,frequency,,,,,,,,,,,,,,,,,,,,,,,,,,,,,,,,,,,,,,,,,,,,,,,,,,,,,,,,,,,,,,,,,,,,,,,,,,,,,,,,,,,,,,,,,,,,,,,,,,,,,,,,,,,,,,,,,,,202.3207602999173,None,5278.031643091578,1.0,0.00015988007960939475,1,"[0.5581594980606577, 0.7093404425106681, 0.6691736520310867, 0.5643587271667535]","[2094.5882456412546, 2639.01582154579, 3324.9515845711526, 4189.176491282508]",Major_3rd,"[18.0, 12.343945930819206, 8.0, 7.0]",False,203.99958649999462,206.9716564998962,206.9716564998962,208.18114919983782,['space'],1,[0.3940060001332313],3.531490589492023,4.545932789565995,None,1,None,1,,,,,,,,,,,,,,luctew,001,fr,0,0,2022-05-12_15h03.34.149,Cluster,2022.1.1,35.364680596551814,
,,,,0,0,0,0,11,0,11,0,,,none,,,,,,,,,,,,,,,,,,,,,,,,,,,,,,,,,,,,,,,,,,,,,,,,,,,,,,,,,,,,,,,,,,,,,,,,,,,,,,,,,,,,,,,,,,,,,,,,,,,,,,,,,,,,,,,,,,,208.57504639984109,None,176.7766952966369,15.0,0.0019683126003941904,1,"[0.7644679345019074, 0.7718309084592807, 0.5371966174240932, 0.7740694791006849]","[611.3118180259466, 166.05008395907737, 3113.3934326173994, 723.5704405528123]",None,"[18.86074235851716, 6.07765557616859, 9.0, 18.434686992489542]",False,209.66219950001687,212.77835519984365,212.77835519984365,214.00789349991828,['space'],1,[0.21515540010295808],3.8672033296898007,4.872765029780567,None,1,None,1,,,,,,,,,,,,,,luctew,001,fr,0,0,2022-05-12_15h03.34.149,Cluster,2022.1.1,35.364680596551814,
,,,,0,0,0,0,12,0,12,0,,,both,,,,,,,,,,,,,,,,,,,,,,,,,,,,,,,,,,,,,,,,,,,,,,,,,,,,,,,,,,,,,,,,,,,,,,,,,,,,,,,,,,,,,,,,,,,,,,,,,,,,,,,,,,,,,,,,,,,214.5675498000346,None,1113.7903736630665,10.809867359927209,0.00016944145936177512,1,"[0.5907298565534325, 0.5907298565534325, 0.5907298565534325, 0.5907298565534325]","[442.0080027062015, 556.8951868315334, 701.643968474187, 884.0160054124029]",Major_3rd,"[16.220717981261956, 18.5574965404976, 18.434686992489542, 16.422498541154127]",False,215.5770946999546,218.36731739994138,218.36731739994138,219.5807025998365,['space'],1,[0.280489900149405],3.390031839720905,4.409541739849374,None,1,None,1,,,,,,,,,,,,,,luctew,001,fr,0,0,2022-05-12_15h03.34.149,Cluster,2022.1.1,35.364680596551814,
,,,,0,0,0,0,13,0,13,0,,,time,,,,,,,,,,,,,,,,,,,,,,,,,,,,,,,,,,,,,,,,,,,,,,,,,,,,,,,,,,,,,,,,,,,,,,,,,,,,,,,,,,,,,,,,,,,,,,,,,,,,,,,,,,,,,,,,,,,220.04111059987918,None,,,,,"[0.747261790658317, 0.747261790658317, 0.747261790658317, 0.747261790658317]","[372.727816296422, 5248.753410342365, 718.315930312997, 386.8154442074843]",None,"[16.351771473087013, 7.7998269890940355, 18.434686992489542, 16.351771473087013]",True,221.0371152998414,224.30858539999463,224.30858539999463,225.52067029988393,['space'],0,[0.3346123001538217],4.005654640030116,5.025838640052825,None,1,None,1,0,,,,,,,,,,,,,luctew,001,fr,0,0,2022-05-12_15h03.34.149,Cluster,2022.1.1,35.364680596551814,
,,,,0,0,0,0,14,0,14,0,,,both,,,,,,,,,,,,,,,,,,,,,,,,,,,,,,,,,,,,,,,,,,,,,,,,,,,,,,,,,,,,,,,,,,,,,,,,,,,,,,,,,,,,,,,,,,,,,,,,,,,,,,,,,,,,,,,,,,,226.1047985998448,None,4924.577653379667,4.0,0.00023386138211216973,1,"[0.7469297105832067, 0.7469297105832067, 0.7469297105832067, 0.7469297105832067]","[7817.279747473972, 6964.404506368996, 6204.579047334942, 5527.651519871107]",Tone,"[6.0, 6.648283391991938, 7.527024518793752, 7.763358327738311]",False,227.1230436998885,230.37946440000087,230.37946440000087,231.5906859000679,['space'],1,[0.28025220008566976],4.012759269447997,5.015389869455248,None,1,None,1,,,,,,,,,,,,,,luctew,001,fr,0,0,2022-05-12_15h03.34.149,Cluster,2022.1.1,35.364680596551814,
,,,,0,0,0,0,15,0,15,0,,,time,,,,,,,,,,,,,,,,,,,,,,,,,,,,,,,,,,,,,,,,,,,,,,,,,,,,,,,,,,,,,,,,,,,,,,,,,,,,,,,,,,,,,,,,,,,,,,,,,,,,,,,,,,,,,,,,,,,232.17350769997574,None,4924.577653379667,4.0,0.00023386138211216973,1,"[0.5591461932965105, 0.5591461932965105, 0.5591461932965105, 0.5591461932965105]","[282.5644623577609, 255.62370211800908, 519.6853016538926, 1025.512981908689]",None,"[18.0, 17.0, 17.9832495361496, 16.0]",False,233.18831219989806,235.89123499998823,235.89123499998823,237.09487010003068,['space'],1,[0.3474900000728667],3.279182470170781,4.30055907019414,None,1,None,1,,,,,,,,,,,,,,luctew,001,fr,0,0,2022-05-12_15h03.34.149,Cluster,2022.1.1,35.364680596551814,
,,,,0,0,0,0,16,0,16,0,,,none,,,,,,,,,,,,,,,,,,,,,,,,,,,,,,,,,,,,,,,,,,,,,,,,,,,,,,,,,,,,,,,,,,,,,,,,,,,,,,,,,,,,,,,,,,,,,,,,,,,,,,,,,,,,,,,,,,,237.51791659998707,None,2774.914861979449,5.0,0.00012236585994338659,0,"[0.43622234065741, 0.660848619977827, 0.46732397432273975, 0.7550979702343321]","[233.03186580290168, 324.5934566453983, 5927.839216054498, 312.96195903671577]",None,"[14.887402809549101, 17.479758446912495, 7.527024518793752, 17.98566910694344]",False,238.53230710001662,241.13964869990014,241.13964869990014,242.36771570006385,None,0,,3.33766773971729,4.33926113974303,None,1,None,1,,,,,,,,,,,,,,luctew,001,fr,0,0,2022-05-12_15h03.34.149,Cluster,2022.1.1,35.364680596551814,
,,,,0,0,0,0,17,0,17,0,,,both,,,,,,,,,,,,,,,,,,,,,,,,,,,,,,,,,,,,,,,,,,,,,,,,,,,,,,,,,,,,,,,,,,,,,,,,,,,,,,,,,,,,,,,,,,,,,,,,,,,,,,,,,,,,,,,,,,,242.92534039984457,None,313.7124261710859,11.985669106943442,0.0003973920665148051,1,"[0.710087956419442, 0.710087956419442, 0.710087956419442, 0.710087956419442]","[197.62644467327118, 221.82818388805896, 248.9937176597389, 279.48599834051623]",Tone,"[9.0, 13.0, 16.631434731510733, 18.0]",False,243.9193471998442,247.08686719997786,247.08686719997786,248.3095994000323,['space'],1,[0.37558910017833114],3.847642639884725,4.8772356398403645,None,1,None,1,,,,,,,,,,,,,,luctew,001,fr,0,0,2022-05-12_15h03.34.149,Cluster,2022.1.1,35.364680596551814,
,,,,0,0,0,0,18,0,18,0,,,time,,,,,,,,,,,,,,,,,,,,,,,,,,,,,,,,,,,,,,,,,,,,,,,,,,,,,,,,,,,,,,,,,,,,,,,,,,,,,,,,,,,,,,,,,,,,,,,,,,,,,,,,,,,,,,,,,,,248.85783019987866,None,,,,,"[0.703860099835967, 0.703860099835967, 0.703860099835967, 0.703860099835967]","[3357.1425383853916, 5255.998035578186, 4812.100104452242, 1286.112987854572]",None,"[8.0, 7.7998269890940355, 7.646420842152193, 18.0]",True,249.86002580006607,252.99047559988685,252.99047559988685,254.19766649999656,None,1,,3.8203639397397637,4.8410666396375746,None,1,None,1,0,,,,,,,,,,,,,luctew,001,fr,0,0,2022-05-12_15h03.34.149,Cluster,2022.1.1,35.364680596551814,
,,,,0,0,0,0,19,0,19,0,,,both,,,,,,,,,,,,,,,,,,,,,,,,,,,,,,,,,,,,,,,,,,,,,,,,,,,,,,,,,,,,,,,,,,,,,,,,,,,,,,,,,,,,,,,,,,,,,,,,,,,,,,,,,,,,,,,,,,,254.75669700000435,None,8000.0,3.0,0.0002564306919956826,1,"[0.5191307968790863, 0.5191307968790863, 0.5191307968790863, 0.5191307968790863]","[5039.684199579492, 5656.8542494923795, 6349.604207872798, 7127.189745122714]",Tone,"[7.646420842152193, 7.763358327738311, 7.1307020185210135, 6.648283391991938]",False,255.78240539995022,258.3852788999211,258.3852788999211,259.616936000064,['space'],1,[0.8325734999962151],3.110830169636756,4.141418969724327,None,1,None,1,,,,,,,,,,,,,,luctew,001,fr,0,0,2022-05-12_15h03.34.149,Cluster,2022.1.1,35.364680596551814,
,,,,1,0,1,0,0,0,0,0,,,time,,,,,,,,,,,,,,,,,,,,,,,,,,,,,,,,,,,,,,,,,,,,,,,,,,,,,,,,,,,,,,,,,,,,,,,,,,,,,,,,,,,,,,,,,,,,,,,,,,,,,,,,,,,,,,,,,,,265.8949587000534,None,3683.861463174378,1.0,8.795578110213579e-05,1,"[0.6701585609713989, 0.6701585609713989, 0.6701585609713989, 0.6701585609713989]","[1285.1710137236976, 781.897932747189, 204.77088284816708, 1252.7598801339102]",None,"[18.0, 17.79986765530967, 10.320213349737966, 18.0]",False,266.8842581999488,269.9275731998496,269.9275731998496,271.1333347999025,['space'],1,[0.27275780006311834],3.6995010399259627,4.70673433993943,None,1,None,1,,,,,,,,,,,,,,luctew,001,fr,0,0,2022-05-12_15h03.34.149,Cluster,2022.1.1,35.364680596551814,
,,,,1,0,1,0,1,0,1,0,,,both,,,,,,,,,,,,,,,,,,,,,,,,,,,,,,,,,,,,,,,,,,,,,,,,,,,,,,,,,,,,,,,,,,,,,,,,,,,,,,,,,,,,,,,,,,,,,,,,,,,,,,,,,,,,,,,,,,,271.64912219997495,None,1521.5300737622008,14.223609845119196,0.000257752994401095,1,"[0.4691313405026338, 0.4691313405026338, 0.4691313405026338, 0.4691313405026338]","[603.8196099228426, 760.7650368811005, 958.503883990548, 1207.639219845685]",Major_3rd,"[18.86074235851716, 17.79986765530967, 16.0, 17.666362963778077]",False,272.65205299993977,275.1004218000453,275.1004218000453,276.3032833999023,['space'],1,[0.21699250023812056],2.914369739824906,3.9217751398682594,None,1,None,1,,,,,,,,,,,,,,luctew,001,fr,0,0,2022-05-12_15h03.34.149,Cluster,2022.1.1,35.364680596551814,
,,,,1,0,1,0,2,0,2,0,,,both,,,,,,,,,,,,,,,,,,,,,,,,,,,,,,,,,,,,,,,,,,,,,,,,,,,,,,,,,,,,,,,,,,,,,,,,,,,,,,,,,,,,,,,,,,,,,,,,,,,,,,,,,,,,,,,,,,,276.62412930000573,None,,,,,"[0.49772786957992193, 0.49772786957992193, 0.49772786957992193, 0.49772786957992193]","[4049.0275001188093, 3213.715256568383, 2550.7274895014516, 2024.5137500594042]",Major_3rd,"[6.888018231818351, 8.096687302623646, 13.0, 18.917660741372508]",True,277.62206900003366,280.13423640001565,280.13423640001565,281.33837329992093,['space'],0,[0.010777000105008483],3.008013639599085,4.012516939546913,None,1,None,1,0,,,,,,,,,,,,,luctew,001,fr,0,0,2022-05-12_15h03.34.149,Cluster,2022.1.1,35.364680596551814,
,,,,1,0,1,0,3,0,3,0,,,time,,,,,,,,,,,,,,,,,,,,,,,,,,,,,,,,,,,,,,,,,,,,,,,,,,,,,,,,,,,,,,,,,,,,,,,,,,,,,,,,,,,,,,,,,,,,,,,,,,,,,,,,,,,,,,,,,,,281.6883570998907,None,8000.0,3.0,0.0002564306919956826,1,"[0.726300352607895, 0.726300352607895, 0.726300352607895, 0.726300352607895]","[260.21809026364457, 1003.8021638276354, 255.96666638489353, 171.6832402475883]",None,"[17.0, 15.913244425506182, 17.0, 6.695539679502874]",False,282.70778939989395,285.9247582999524,285.9247582999524,287.1449676998891,['space'],1,[0.16356460005044937],3.9442542700562626,4.971624470083043,None,1,None,1,,,,,,,,,,,,,,luctew,001,fr,0,0,2022-05-12_15h03.34.149,Cluster,2022.1.1,35.364680596551814,
,,,,1,0,1,0,4,0,4,0,,,frequency,,,,,,,,,,,,,,,,,,,,,,,,,,,,,,,,,,,,,,,,,,,,,,,,,,,,,,,,,,,,,,,,,,,,,,,,,,,,,,,,,,,,,,,,,,,,,,,,,,,,,,,,,,,,,,,,,,,287.70730969985016,None,2539.7395885156793,7.0,0.00018676728408119193,1,"[0.772791479468159, 0.5614505298499277, 0.7481520832030101, 0.707246643299045]","[503.9481618168839, 755.0690972292322, 1131.3253719094457, 1695.0728109820661]",Perfect_5th,"[17.28989976777316, 17.79986765530967, 16.80986735992721, 20.478503186202737]",False,288.70272880000994,291.81624990003183,291.81624990003183,293.0260955998674,['space'],1,[0.2900930002797395],3.8068607398308814,4.8134812398348,None,1,None,1,,,,,,,,,,,,,,luctew,001,fr,0,0,2022-05-12_15h03.34.149,Cluster,2022.1.1,35.364680596551814,
,,,,1,0,1,0,5,0,5,0,,,time,,,,,,,,,,,,,,,,,,,,,,,,,,,,,,,,,,,,,,,,,,,,,,,,,,,,,,,,,,,,,,,,,,,,,,,,,,,,,,,,,,,,,,,,,,,,,,,,,,,,,,,,,,,,,,,,,,,293.5735400998965,None,647.2614412759398,12.816814774548485,0.00021715422184248771,1,"[0.6284971836987636, 0.6284971836987636, 0.6284971836987636, 0.6284971836987636]","[2153.142851162886, 7008.08692063324, 509.0295621580502, 784.2121023232335]",None,"[17.544827605440098, 6.648283391991938, 17.28989976777316, 17.79986765530967]",False,294.5758155998774,297.493544699857,297.493544699857,298.7263666000217,['space'],1,[0.23633650015108287],3.5387302399612963,4.545727139804512,None,1,None,1,,,,,,,,,,,,,,luctew,001,fr,0,0,2022-05-12_15h03.34.149,Cluster,2022.1.1,35.364680596551814,
,,,,1,0,1,0,6,0,6,0,,,frequency,,,,,,,,,,,,,,,,,,,,,,,,,,,,,,,,,,,,,,,,,,,,,,,,,,,,,,,,,,,,,,,,,,,,,,,,,,,,,,,,,,,,,,,,,,,,,,,,,,,,,,,,,,,,,,,,,,,299.1749636998866,None,8000.0,2.0,0.0002285440948074376,1,"[0.5239600365312159, 0.5357273000182716, 0.6311893769745973, 0.7293007307005588]","[3174.8021039364003, 4000.0000000000014, 5039.684199579494, 6349.604207872799]",Major_3rd,"[8.096687302623646, 6.888018231818351, 7.646420842152193, 7.1307020185210135]",False,300.1966047999449,302.90717380004935,302.90717380004935,304.12986209988594,['space'],1,[0.2719521000981331],3.448800770100206,4.473225069930777,None,1,None,1,,,,,,,,,,,,,,luctew,001,fr,0,0,2022-05-12_15h03.34.149,Cluster,2022.1.1,35.364680596551814,
,,,,1,0,1,0,7,0,7,0,,,both,,,,,,,,,,,,,,,,,,,,,,,,,,,,,,,,,,,,,,,,,,,,,,,,,,,,,,,,,,,,,,,,,,,,,,,,,,,,,,,,,,,,,,,,,,,,,,,,,,,,,,,,,,,,,,,,,,,304.7099855998531,None,,,,,"[0.7057492798407923, 0.7057492798407923, 0.7057492798407923, 0.7057492798407923]","[4592.119854823661, 4091.1136922092005, 3644.7679441555674, 3247.1190893671946]",Tone,"[7.368981177538528, 7.0, 7.0, 8.096687302623646]",True,305.7119078000542,308.8616638998501,308.8616638998501,310.07749169995077,['space'],0,[0.8765050002839416],3.8301021398510784,4.859055639710277,None,1,None,1,0,,,,,,,,,,,,,luctew,001,fr,0,0,2022-05-12_15h03.34.149,Cluster,2022.1.1,35.364680596551814,
,,,,1,0,1,0,8,0,8,0,,,both,,,,,,,,,,,,,,,,,,,,,,,,,,,,,,,,,,,,,,,,,,,,,,,,,,,,,,,,,,,,,,,,,,,,,,,,,,,,,,,,,,,,,,,,,,,,,,,,,,,,,,,,,,,,,,,,,,,310.61643579998054,None,3482.202253184498,2.0,9.423148086205962e-05,1,"[0.5312575834188222, 0.5312575834188222, 0.5312575834188222, 0.5312575834188222]","[5527.651519871108, 4924.577653379668, 4387.299918778506, 3908.639873736986]",Tone,"[7.763358327738311, 7.646420842152193, 7.072038840080568, 6.888018231818351]",False,311.6358481000643,314.2731010999996,314.2731010999996,315.50286239990965,['space'],1,[0.5068056001327932],3.151552570052445,4.179956269916147,None,1,None,1,,,,,,,,,,,,,,luctew,001,fr,0,0,2022-05-12_15h03.34.149,Cluster,2022.1.1,35.364680596551814,
,,,,1,0,1,0,9,0,9,0,,,none,,,,,,,,,,,,,,,,,,,,,,,,,,,,,,,,,,,,,,,,,,,,,,,,,,,,,,,,,,,,,,,,,,,,,,,,,,,,,,,,,,,,,,,,,,,,,,,,,,,,,,,,,,,,,,,,,,,315.8544596999418,None,5278.031643091578,5.0,0.00025339284978307064,1,"[0.5608430128059987, 0.5317358417376586, 0.7026407072712486, 0.44023760220445574]","[316.401410781506, 1033.442378772405, 394.3517044790854, 540.5192540920877]",None,"[17.98566910694344, 16.0, 16.11397927296251, 18.0]",False,316.87624590005726,319.70309540000744,319.70309540000744,320.93456199998036,['space'],1,[0.39742010016925633],3.2759455698542297,4.303496169857681,None,1,None,1,,,,,,,,,,,,,,luctew,001,fr,0,0,2022-05-12_15h03.34.149,Cluster,2022.1.1,35.364680596551814,
,,,,1,0,1,0,10,0,10,0,,,both,,,,,,,,,,,,,,,,,,,,,,,,,,,,,,,,,,,,,,,,,,,,,,,,,,,,,,,,,,,,,,,,,,,,,,,,,,,,,,,,,,,,,,,,,,,,,,,,,,,,,,,,,,,,,,,,,,,321.21058940002695,None,767.6514283544291,11.799867655309667,0.000154989071314499,1,"[0.5464621469785254, 0.5464621469785254, 0.5464621469785254, 0.5464621469785254]","[152.32133561433895, 228.22413511027216, 341.9498367497807, 512.3458603390224]",Perfect_5th,"[6.432035943248767, 14.0, 17.0, 17.28989976777316]",False,322.2289179000072,324.88847949984483,324.88847949984483,326.1171309000347,['space'],1,[0.2803106002975255],3.1948633398860693,4.211585839744657,None,1,None,1,,,,,,,,,,,,,,luctew,001,fr,0,0,2022-05-12_15h03.34.149,Cluster,2022.1.1,35.364680596551814,
,,,,1,0,1,0,11,0,11,0,,,both,,,,,,,,,,,,,,,,,,,,,,,,,,,,,,,,,,,,,,,,,,,,,,,,,,,,,,,,,,,,,,,,,,,,,,,,,,,,,,,,,,,,,,,,,,,,,,,,,,,,,,,,,,,,,,,,,,,326.49505869997665,None,,,,,"[0.5723162554580375, 0.5723162554580375, 0.5723162554580375, 0.5723162554580375]","[190.52117922993673, 213.85279308475197, 240.0416441625912, 269.4376355862918]",Tone,"[8.201958806113415, 12.0, 16.0, 17.722294426952526]",True,327.50711869983934,330.2469180999324,330.2469180999324,331.46007839986123,['space'],0,[0.25228659994900227],3.3130482397973537,4.3391773398034275,None,1,None,1,0,,,,,,,,,,,,,luctew,001,fr,0,0,2022-05-12_15h03.34.149,Cluster,2022.1.1,35.364680596551814,
,,,,1,0,1,0,12,0,12,0,,,frequency,,,,,,,,,,,,,,,,,,,,,,,,,,,,,,,,,,,,,,,,,,,,,,,,,,,,,,,,,,,,,,,,,,,,,,,,,,,,,,,,,,,,,,,,,,,,,,,,,,,,,,,,,,,,,,,,,,,331.9010055998806,None,135.66459333099576,3.0,0.0008867557190932269,0,"[0.5630340967414483, 0.5488340723418782, 0.6783641132641667, 0.5555308993345676]","[341.85335372629845, 271.32918666199157, 215.35411816846067, 170.9266768631492]",Major_3rd,"[17.0, 17.722294426952526, 12.0, 6.695539679502874]",False,332.89762010006234,335.7233710999135,335.7233710999135,336.9263762999326,None,0,,3.3739464399404824,4.387747939908877,None,1,None,1,,,,,,,,,,,,,,luctew,001,fr,0,0,2022-05-12_15h03.34.149,Cluster,2022.1.1,35.364680596551814,
,,,,1,0,1,0,13,0,13,0,,,frequency,,,,,,,,,,,,,,,,,,,,,,,,,,,,,,,,,,,,,,,,,,,,,,,,,,,,,,,,,,,,,,,,,,,,,,,,,,,,,,,,,,,,,,,,,,,,,,,,,,,,,,,,,,,,,,,,,,,337.3352125999518,None,1071.7734625362941,13.0,0.00021018482538189467,1,"[0.42515350823670167, 0.7906394047651685, 0.6113663216681017, 0.7464177678519748]","[212.66679023771414, 318.64015682981585, 477.42080195520873, 715.3229662176299]",Perfect_5th,"[12.0, 17.98566910694344, 17.0, 18.434686992489542]",False,339.16061430005357,342.00541209988296,342.00541209988296,343.233665100066,['space'],1,[0.21054840018041432],3.597455309238285,4.6241498093586415,None,1,None,1,,,,,,,,,,,,,,luctew,001,fr,0,0,2022-05-12_15h03.34.149,Cluster,2022.1.1,35.364680596551814,
,,,,1,0,1,0,14,0,14,0,,,both,,,,,,,,,,,,,,,,,,,,,,,,,,,,,,,,,,,,,,,,,,,,,,,,,,,,,,,,,,,,,,,,,,,,,,,,,,,,,,,,,,,,,,,,,,,,,,,,,,,,,,,,,,,,,,,,,,,343.834148199996,None,466.5164957684038,4.0,0.00011594380644503983,1,"[0.5069847699584533, 0.5069847699584533, 0.5069847699584533, 0.5069847699584533]","[293.88697657090216, 329.8769776932236, 370.2743880716411, 415.61894807139396]",Tone,"[18.138518104018644, 17.479758446912495, 16.351771473087013, 16.11397927296251]",False,344.8479061999824,347.41156310006045,347.41156310006045,348.624374399893,['space'],1,[0.43071600003167987],3.0598069697152823,4.084737369790673,None,1,None,1,,,,,,,,,,,,,,luctew,001,fr,0,0,2022-05-12_15h03.34.149,Cluster,2022.1.1,35.364680596551814,
,,,,1,0,1,0,15,0,15,0,,,none,,,,,,,,,,,,,,,,,,,,,,,,,,,,,,,,,,,,,,,,,,,,,,,,,,,,,,,,,,,,,,,,,,,,,,,,,,,,,,,,,,,,,,,,,,,,,,,,,,,,,,,,,,,,,,,,,,,348.9714927999303,None,286.74951259685463,12.138518104018646,0.0005199934091475436,1,"[0.790999760974065, 0.6376568883911745, 0.413900690459096, 0.5944654210568971]","[1136.9053350018305, 2460.938955915508, 149.82717674611197, 2497.153840996117]",None,"[16.80986735992721, 14.131675275687215, 7.0, 14.0]",False,349.96601919992827,352.8344596000388,352.8344596000388,354.0598794000689,['space'],1,[0.4578370002564043],3.465713139856234,4.475498239742592,None,1,None,1,,,,,,,,,,,,,,luctew,001,fr,0,0,2022-05-12_15h03.34.149,Cluster,2022.1.1,35.364680596551814,
,,,,1,0,1,0,16,0,16,0,,,both,,,,,,,,,,,,,,,,,,,,,,,,,,,,,,,,,,,,,,,,,,,,,,,,,,,,,,,,,,,,,,,,,,,,,,,,,,,,,,,,,,,,,,,,,,,,,,,,,,,,,,,,,,,,,,,,,,,354.4963278998621,None,,,,,"[0.7366483740179491, 0.7366483740179491, 0.7366483740179491, 0.7366483740179491]","[713.39830006196, 566.2246059953402, 449.41276760364116, 356.69915003098]",Major_3rd,"[18.434686992489542, 18.5574965404976, 16.220717981261956, 16.85773133919742]",True,355.49701779987663,358.74153360002674,358.74153360002674,359.9598055998795,None,1,,3.973944439785555,4.9880596396978945,None,1,None,1,0,,,,,,,,,,,,,luctew,001,fr,0,0,2022-05-12_15h03.34.149,Cluster,2022.1.1,35.364680596551814,
,,,,1,0,1,0,17,0,17,0,,,frequency,,,,,,,,,,,,,,,,,,,,,,,,,,,,,,,,,,,,,,,,,,,,,,,,,,,,,,,,,,,,,,,,,,,,,,,,,,,,,,,,,,,,,,,,,,,,,,,,,,,,,,,,,,,,,,,,,,,360.53661269997247,None,2862.435938364478,4.669625497967333,0.00010848819864656776,1,"[0.6887699120280255, 0.6516749845201268, 0.5276775700755922, 0.6141967831023578]","[4543.833819751353, 4048.0957254592017, 3606.4432927209896, 3212.975706530954]",Tone,"[7.368981177538528, 6.888018231818351, 7.0, 8.096687302623646]",False,361.5350377999712,364.4151240000501,364.4151240000501,365.6452238999773,['space'],1,[0.5056476001627743],3.493387839756906,4.495725839864463,None,1,None,1,,,,,,,,,,,,,,luctew,001,fr,0,0,2022-05-12_15h03.34.149,Cluster,2022.1.1,35.364680596551814,
,,,,1,0,1,0,18,0,18,0,,,none,,,,,,,,,,,,,,,,,,,,,,,,,,,,,,,,,,,,,,,,,,,,,,,,,,,,,,,,,,,,,,,,,,,,,,,,,,,,,,,,,,,,,,,,,,,,,,,,,,,,,,,,,,,,,,,,,,,366.08506409986876,None,8000.0,4.0,0.0002877199686685786,1,"[0.5057970396715326, 0.555360906701084, 0.6008427182610713, 0.6443420145852489]","[286.7414297334611, 1641.7749308716486, 1312.2424468258491, 2441.2569830716293]",None,"[18.138518104018644, 20.567105356731734, 18.625992675863763, 14.131675275687215]",False,367.0975247998722,369.7897818000056,369.7897818000056,370.99934759992175,['space'],1,[0.24398190015926957],3.334554969565943,4.353732869727537,None,1,None,1,,,,,,,,,,,,,,luctew,001,fr,0,0,2022-05-12_15h03.34.149,Cluster,2022.1.1,35.364680596551814,
,,,,1,0,1,0,19,0,19,0,,,time,,,,,,,,,,,,,,,,,,,,,,,,,,,,,,,,,,,,,,,,,,,,,,,,,,,,,,,,,,,,,,,,,,,,,,,,,,,,,,,,,,,,,,,,,,,,,,,,,,,,,,,,,,,,,,,,,,,371.4827431999147,None,406.12619817811805,4.0,0.00012083438749800345,1,"[0.4861382102845133, 0.4861382102845133, 0.4861382102845133, 0.4861382102845133]","[979.8930859660555, 153.81540522934642, 2506.347165366706, 6663.911801571653]",None,"[15.913244425506182, 6.432035943248767, 14.0, 7.0]",False,372.50470059993677,374.9815829000436,374.9815829000436,376.2000112000387,['space'],1,[0.36437380011193454],2.9917369696777314,4.029014269821346,None,1,None,1,,,,,,,,,,,,,,luctew,001,fr,0,0,2022-05-12_15h03.34.149,Cluster,2022.1.1,35.364680596551814,
,,,,2,0,2,0,0,0,0,0,,,both,,,,,,,,,,,,,,,,,,,,,,,,,,,,,,,,,,,,,,,,,,,,,,,,,,,,,,,,,,,,,,,,,,,,,,,,,,,,,,,,,,,,,,,,,,,,,,,,,,,,,,,,,,,,,,,,,,,384.42231439985335,None,,,,,"[0.5031449918173282, 0.5031449918173282, 0.5031449918173282, 0.5031449918173282]","[3568.313560782432, 2381.5635765538887, 1589.5029886119291, 1060.8659687607906]",Perfect_5th,"[7.334290322598539, 15.0, 20.567105356731734, 16.197528270719356]",True,385.419363199966,387.9451925000176,387.9451925000176,389.1750204998534,None,1,,3.0477270397823304,4.075671539641917,None,1,None,1,0,,,,,,,,,,,,,luctew,001,fr,0,0,2022-05-12_15h03.34.149,Cluster,2022.1.1,35.364680596551814,
,,,,2,0,2,0,1,0,1,0,,,time,,,,,,,,,,,,,,,,,,,,,,,,,,,,,,,,,,,,,,,,,,,,,,,,,,,,,,,,,,,,,,,,,,,,,,,,,,,,,,,,,,,,,,,,,,,,,,,,,,,,,,,,,,,,,,,,,,,389.5412897998467,None,215.7341982458134,6.677339782406106,0.0005060862051563335,1,"[0.5584181091907608, 0.5584181091907608, 0.5584181091907608, 0.5584181091907608]","[4108.279406676038, 885.2030729576998, 403.8306258599311, 1062.415284244717]",None,"[7.0, 16.422498541154127, 16.11397927296251, 16.197528270719356]",False,390.5301268999465,393.22791729983874,393.22791729983874,394.4490077998489,['space'],1,[0.3475471001584083],3.2418337396811694,4.262221439741552,None,1,None,1,,,,,,,,,,,,,,luctew,001,fr,0,0,2022-05-12_15h03.34.149,Cluster,2022.1.1,35.364680596551814,
,,,,2,0,2,0,2,0,2,0,,,none,,,,,,,,,,,,,,,,,,,,,,,,,,,,,,,,,,,,,,,,,,,,,,,,,,,,,,,,,,,,,,,,,,,,,,,,,,,,,,,,,,,,,,,,,,,,,,,,,,,,,,,,,,,,,,,,,,,394.85633579990827,None,136.88436813815312,3.0,0.0008714163655395863,1,"[0.7917079380392088, 0.43069563914300424, 0.48304650033904745, 0.46723331736425006]","[356.2612280400876, 7102.006925734918, 6679.693249144594, 880.0074873501753]",None,"[16.85773133919742, 6.648283391991938, 7.0, 16.422498541154127]",False,395.8463989000302,398.5696141999215,398.5696141999215,399.78593149990775,['space'],1,[0.8056088001467288],3.2038380396552384,4.22897613979876,None,1,None,1,,,,,,,,,,,,,,luctew,001,fr,0,0,2022-05-12_15h03.34.149,Cluster,2022.1.1,35.364680596551814,
,,,,2,0,2,0,3,0,3,0,,,none,,,,,,,,,,,,,,,,,,,,,,,,,,,,,,,,,,,,,,,,,,,,,,,,,,,,,,,,,,,,,,,,,,,,,,,,,,,,,,,,,,,,,,,,,,,,,,,,,,,,,,,,,,,,,,,,,,,400.1271859998815,None,125.0,6.0,0.0014420157515633036,0,"[0.6812241853525927, 0.6605723964332342, 0.6787946533008761, 0.5413915114746147]","[6309.619256750384, 193.30297070996534, 808.5957615116614, 1990.664282201958]",None,"[7.1307020185210135, 9.0, 17.07425568908256, 19.0]",False,403.51252270000987,406.5518000999,406.5518000999,407.7627310999669,None,0,,3.5671413589734584,4.587337858974934,None,1,None,1,,,,,,,,,,,,,,luctew,001,fr,0,0,2022-05-12_15h03.34.149,Cluster,2022.1.1,35.364680596551814,
,,,,2,0,2,0,4,0,4,0,,,none,,,,,,,,,,,,,,,,,,,,,,,,,,,,,,,,,,,,,,,,,,,,,,,,,,,,,,,,,,,,,,,,,,,,,,,,,,,,,,,,,,,,,,,,,,,,,,,,,,,,,,,,,,,,,,,,,,,408.14852479984984,None,,,,,"[0.5609343566825273, 0.6880883863907266, 0.6616360772245459, 0.46261076686556635]","[6079.106377754295, 3604.8359407229514, 270.4004315602775, 128.2551006920122]",None,"[7.527024518793752, 7.0, 17.722294426952526, 11.0]",True,409.1511780000292,412.0925656000618,412.0925656000618,413.299967299914,None,1,,3.3820444401353598,4.410887740086764,None,1,None,1,0,,,,,,,,,,,,,luctew,001,fr,0,0,2022-05-12_15h03.34.149,Cluster,2022.1.1,35.364680596551814,
,,,,2,0,2,0,5,0,5,0,,,none,,,,,,,,,,,,,,,,,,,,,,,,,,,,,,,,,,,,,,,,,,,,,,,,,,,,,,,,,,,,,,,,,,,,,,,,,,,,,,,,,,,,,,,,,,,,,,,,,,,,,,,,,,,,,,,,,,,413.60957950004376,None,1845.3719615109685,14.0,0.0003399545324434268,1,"[0.41802977674517205, 0.43571748547714007, 0.7134046840395706, 0.6793418799141387]","[2144.3622664833624, 189.06561670114615, 7668.236595844225, 3436.1054698724]",None,"[17.544827605440098, 8.201958806113415, 6.0, 7.334290322598539]",False,414.61121919984,417.20760339987464,417.20760339987464,418.44870579987764,['space'],1,[0.30072599998675287],3.254643540130928,4.259730539983138,None,1,None,1,,,,,,,,,,,,,,luctew,001,fr,0,0,2022-05-12_15h03.34.149,Cluster,2022.1.1,35.364680596551814,
,,,,2,0,2,0,6,0,6,0,,,none,,,,,,,,,,,,,,,,,,,,,,,,,,,,,,,,,,,,,,,,,,,,,,,,,,,,,,,,,,,,,,,,,,,,,,,,,,,,,,,,,,,,,,,,,,,,,,,,,,,,,,,,,,,,,,,,,,,418.92409109999426,None,1071.7734625362941,14.0,0.0002358312528927216,1,"[0.51668191220547, 0.5354503107794889, 0.5970895746675695, 0.7609480206003658]","[1073.4934486285329, 2081.6018664139756, 770.2967958287628, 212.02653032683304]",None,"[16.197528270719356, 18.0, 17.79986765530967, 12.0]",False,422.03416539984755,424.7122609000653,424.7122609000653,425.9246725998819,['space'],1,[0.40224570012651384],3.4546356888022274,4.484596388880163,None,1,None,1,,,,,,,,,,,,,,luctew,001,fr,0,0,2022-05-12_15h03.34.149,Cluster,2022.1.1,35.364680596551814,
,,,,2,0,2,0,7,0,7,0,,,both,,,,,,,,,,,,,,,,,,,,,,,,,,,,,,,,,,,,,,,,,,,,,,,,,,,,,,,,,,,,,,,,,,,,,,,,,,,,,,,,,,,,,,,,,,,,,,,,,,,,,,,,,,,,,,,,,,,426.5645882000681,None,219.58725019010137,7.0,0.0005083398638585234,0,"[0.44152716100365996, 0.44152716100365996, 0.44152716100365996, 0.44152716100365996]","[1106.650395212163, 738.6005260811072, 492.9567092620079, 329.0091309517193]",Perfect_5th,"[16.197528270719356, 18.0, 17.28989976777316, 17.479758446912495]",False,427.5719409000594,429.92201039986685,429.92201039986685,431.1524185000453,None,0,,2.7773255398496985,3.806371239712462,None,1,None,1,,,,,,,,,,,,,,luctew,001,fr,0,0,2022-05-12_15h03.34.149,Cluster,2022.1.1,35.364680596551814,
,,,,2,0,2,0,8,0,8,0,,,frequency,,,,,,,,,,,,,,,,,,,,,,,,,,,,,,,,,,,,,,,,,,,,,,,,,,,,,,,,,,,,,,,,,,,,,,,,,,,,,,,,,,,,,,,,,,,,,,,,,,,,,,,,,,,,,,,,,,,431.44209919986315,None,406.12619817811805,3.0,0.0001076937612164121,0,"[0.42948868180813404, 0.6483359366222476, 0.7581255322503, 0.5676448105193816]","[644.6851542197901, 574.349177498518, 511.68694599838784, 455.86124427910875]",Tone,"[18.816814774548483, 18.5574965404976, 17.28989976777316, 16.64525601674326]",False,432.4594787999522,435.3251735998783,435.3251735998783,436.5606922998559,None,0,,3.4447218698915094,4.472837569890544,['space'],0,None,1,,[-0.011364499805495143],,,,,,,,,,,,luctew,001,fr,0,0,2022-05-12_15h03.34.149,Cluster,2022.1.1,35.364680596551814,
,,,,2,0,2,0,9,0,9,0,,,both,,,,,,,,,,,,,,,,,,,,,,,,,,,,,,,,,,,,,,,,,,,,,,,,,,,,,,,,,,,,,,,,,,,,,,,,,,,,,,,,,,,,,,,,,,,,,,,,,,,,,,,,,,,,,,,,,,,436.9767934998963,None,5656.85424949238,-2.0,0.00010208999268889497,0,"[0.4731387846190435, 0.4731387846190435, 0.4731387846190435, 0.4731387846190435]","[1122.4620483093731, 1681.7928305074292, 2519.8420997897465, 3775.497250726774]",Perfect_5th,"[16.80986735992721, 20.567105356731734, 14.0, 6.94486050210244]",False,437.9930585999973,440.43768279999495,440.43768279999495,441.66430169995874,None,0,,2.940956270089373,3.9638208700343966,None,1,None,1,,,,,,,,,,,,,,luctew,001,fr,0,0,2022-05-12_15h03.34.149,Cluster,2022.1.1,35.364680596551814,
,,,,2,0,2,0,10,0,10,0,,,none,,,,,,,,,,,,,,,,,,,,,,,,,,,,,,,,,,,,,,,,,,,,,,,,,,,,,,,,,,,,,,,,,,,,,,,,,,,,,,,,,,,,,,,,,,,,,,,,,,,,,,,,,,,,,,,,,,,441.98861639993265,None,213.62880005432277,6.0,0.00047635054651692043,1,"[0.7812865064576446, 0.7143507719017641, 0.4493102583533317, 0.5310825338525147]","[278.28400309785644, 842.4309170333798, 306.4362076583194, 1377.345900822972]",None,"[18.0, 17.0, 18.0, 19.0]",False,442.9803706998937,445.94759249989875,445.94759249989875,447.1699929998722,['space'],1,[0.3544420001562685],3.5132198398932815,4.545824639732018,None,1,None,1,,,,,,,,,,,,,,luctew,001,fr,0,0,2022-05-12_15h03.34.149,Cluster,2022.1.1,35.364680596551814,
,,,,2,0,2,0,11,0,11,0,,,none,,,,,,,,,,,,,,,,,,,,,,,,,,,,,,,,,,,,,,,,,,,,,,,,,,,,,,,,,,,,,,,,,,,,,,,,,,,,,,,,,,,,,,,,,,,,,,,,,,,,,,,,,,,,,,,,,,,447.58125979988836,None,176.7766952966369,3.0,0.0004944177713899504,1,"[0.45623254354456716, 0.575759588240857, 0.6881289069020833, 0.7793188647565388]","[178.939350192359, 815.4457072743302, 1180.8972329995759, 5094.05451813969]",None,"[7.0, 17.07425568908256, 17.0, 7.646420842152193]",False,449.9774116000626,452.7091671000235,452.7091671000235,453.9190886998549,['space'],1,[0.6128787002526224],3.5293882391415536,4.5625391392968595,None,1,None,1,,,,,,,,,,,,,,luctew,001,fr,0,0,2022-05-12_15h03.34.149,Cluster,2022.1.1,35.364680596551814,
,,,,2,0,2,0,12,0,12,0,,,both,,,,,,,,,,,,,,,,,,,,,,,,,,,,,,,,,,,,,,,,,,,,,,,,,,,,,,,,,,,,,,,,,,,,,,,,,,,,,,,,,,,,,,,,,,,,,,,,,,,,,,,,,,,,,,,,,,,454.62948639993556,None,3746.762473911959,0.9448605021024403,8.863025165715114e-05,1,"[0.6452981764046083, 0.6452981764046083, 0.6452981764046083, 0.6452981764046083]","[743.4518365703523, 1113.9191480503248, 1668.9929425922455, 2500.6639371431984]",Perfect_5th,"[18.0, 16.80986735992721, 20.567105356731734, 14.0]",False,455.5965757998638,458.57296380004846,458.57296380004846,459.7850955000613,['space'],1,[0.5059446000959724],3.6105115399695933,4.640396339818835,None,1,None,1,,,,,,,,,,,,,,luctew,001,fr,0,0,2022-05-12_15h03.34.149,Cluster,2022.1.1,35.364680596551814,
,,,,2,0,2,0,13,0,13,0,,,time,,,,,,,,,,,,,,,,,,,,,,,,,,,,,,,,,,,,,,,,,,,,,,,,,,,,,,,,,,,,,,,,,,,,,,,,,,,,,,,,,,,,,,,,,,,,,,,,,,,,,,,,,,,,,,,,,,,460.28847480006516,None,287.17458874925893,6.0,0.0002555923582352803,0,"[0.6142271943950719, 0.6142271943950719, 0.6142271943950719, 0.6142271943950719]","[1909.2131398381282, 4983.341822303735, 7101.0548108038465, 3221.0981384463867]",None,"[19.919337459087675, 7.646420842152193, 6.648283391991938, 8.096687302623646]",False,461.3039297000505,464.1670335000381,464.1670335000381,465.39609329984523,None,0,,3.493775370065123,4.524081170093268,None,1,None,1,,,,,,,,,,,,,,luctew,001,fr,0,0,2022-05-12_15h03.34.149,Cluster,2022.1.1,35.364680596551814,
,,,,2,0,2,0,14,0,14,0,,,both,,,,,,,,,,,,,,,,,,,,,,,,,,,,,,,,,,,,,,,,,,,,,,,,,,,,,,,,,,,,,,,,,,,,,,,,,,,,,,,,,,,,,,,,,,,,,,,,,,,,,,,,,,,,,,,,,,,465.87785589997657,None,2639.015821545789,5.0,0.00013738374372185104,1,"[0.5027604460951508, 0.5027604460951508, 0.5027604460951508, 0.5027604460951508]","[4189.176491282508, 3732.1319661472307, 3324.951584571152, 2962.1951045731294]",Tone,"[7.0, 6.94486050210244, 8.0, 10.0]",False,466.89686019998044,469.4427799999248,469.4427799999248,470.664594899863,['space'],1,[0.5228197001852095],3.034127269871533,4.0441284698899835,None,1,None,1,,,,,,,,,,,,,,luctew,001,fr,0,0,2022-05-12_15h03.34.149,Cluster,2022.1.1,35.364680596551814,
,,,,2,0,2,0,15,0,15,0,,,none,,,,,,,,,,,,,,,,,,,,,,,,,,,,,,,,,,,,,,,,,,,,,,,,,,,,,,,,,,,,,,,,,,,,,,,,,,,,,,,,,,,,,,,,,,,,,,,,,,,,,,,,,,,,,,,,,,,470.97812870005146,None,,,,,"[0.45167302947477184, 0.48231679400192806, 0.5374324744914023, 0.5673829388195974]","[201.3184351314005, 1847.4130353724915, 7917.586241172682, 3009.96029254865]",None,"[10.0, 20.0, 5.808615629993926, 9.227562175475335]",True,471.9892327999696,474.49826249992475,474.49826249992475,475.7039805999957,None,1,,3.073285439517349,4.100552739575505,None,1,None,1,0,,,,,,,,,,,,,luctew,001,fr,0,0,2022-05-12_15h03.34.149,Cluster,2022.1.1,35.364680596551814,
,,,,2,0,2,0,16,0,16,0,,,time,,,,,,,,,,,,,,,,,,,,,,,,,,,,,,,,,,,,,,,,,,,,,,,,,,,,,,,,,,,,,,,,,,,,,,,,,,,,,,,,,,,,,,,,,,,,,,,,,,,,,,,,,,,,,,,,,,,476.1449390000198,None,597.4229012172398,12.860742358517161,0.0002472487367852499,1,"[0.6932282104016749, 0.6932282104016749, 0.6932282104016749, 0.6932282104016749]","[669.9073146653909, 1322.0841151161876, 222.248986602858, 2093.690368674866]",None,"[18.816814774548483, 18.625992675863763, 13.0, 18.0]",False,477.15667389985174,480.25685449992307,480.25685449992307,481.475681199925,['space'],1,[0.7009463000576943],3.781629139557481,4.805510739563033,None,1,None,1,,,,,,,,,,,,,,luctew,001,fr,0,0,2022-05-12_15h03.34.149,Cluster,2022.1.1,35.364680596551814,
,,,,2,0,2,0,17,0,17,0,,,both,,,,,,,,,,,,,,,,,,,,,,,,,,,,,,,,,,,,,,,,,,,,,,,,,,,,,,,,,,,,,,,,,,,,,,,,,,,,,,,,,,,,,,,,,,,,,,,,,,,,,,,,,,,,,,,,,,,482.0214398999233,None,387.02838000558506,10.351771473087013,0.0002631809765793098,1,"[0.7642938103654502, 0.7642938103654502, 0.7642938103654502, 0.7642938103654502]","[243.81260143787432, 273.6703920135932, 307.18462878120687, 344.80308763090784]",Tone,"[16.0, 17.722294426952526, 17.98566910694344, 17.0]",False,483.01204379997216,486.3412387999706,486.3412387999706,487.5615956999827,['space'],1,[0.4667359001468867],4.090091039892286,5.125479740090668,None,1,None,1,,,,,,,,,,,,,,luctew,001,fr,0,0,2022-05-12_15h03.34.149,Cluster,2022.1.1,35.364680596551814,
,,,,2,0,2,0,18,0,18,0,,,both,,,,,,,,,,,,,,,,,,,,,,,,,,,,,,,,,,,,,,,,,,,,,,,,,,,,,,,,,,,,,,,,,,,,,,,,,,,,,,,,,,,,,,,,,,,,,,,,,,,,,,,,,,,,,,,,,,,488.1936337000225,None,353.5533905932738,3.0,0.00012516824333394988,1,"[0.6998403674157836, 0.6998403674157836, 0.6998403674157836, 0.6998403674157836]","[1781.7974362806788, 1189.2071150027211, 793.7005259840998, 529.7315471796477]",Perfect_5th,"[20.478503186202737, 17.0, 17.07425568908256, 17.9832495361496]",False,489.9731068999972,493.11684789997526,493.11684789997526,494.3497434000019,['space'],1,[0.93587930011563],3.8338242794852704,4.83552717952989,None,1,None,1,,,,,,,,,,,,,,luctew,001,fr,0,0,2022-05-12_15h03.34.149,Cluster,2022.1.1,35.364680596551814,
,,,,2,0,2,0,19,0,19,0,,,both,,,,,,,,,,,,,,,,,,,,,,,,,,,,,,,,,,,,,,,,,,,,,,,,,,,,,,,,,,,,,,,,,,,,,,,,,,,,,,,,,,,,,,,,,,,,,,,,,,,,,,,,,,,,,,,,,,,494.8399904000107,None,230.76893836557224,8.887402809549101,0.0005707722918149018,0,"[0.40774607123850654, 0.40774607123850654, 0.40774607123850654, 0.40774607123850654]","[366.32285552309395, 326.3565624110331, 290.750643108677, 259.02937524399965]",Tone,"[16.351771473087013, 17.479758446912495, 18.138518104018644, 17.0]",False,495.8399267999921,498.08537229988724,498.08537229988724,499.2900199999567,None,0,,2.640225439798087,3.6466042399406433,None,1,None,1,,,,,,,,,,,,,,luctew,001,fr,0,0,2022-05-12_15h03.34.149,Cluster,2022.1.1,35.364680596551814,
,,,,3,0,3,0,0,0,0,0,,,both,,,,,,,,,,,,,,,,,,,,,,,,,,,,,,,,,,,,,,,,,,,,,,,,,,,,,,,,,,,,,,,,,,,,,,,,,,,,,,,,,,,,,,,,,,,,,,,,,,,,,,,,,,,,,,,,,,,504.13776910002343,None,,,,,"[0.42807883931811097, 0.42807883931811097, 0.42807883931811097, 0.42807883931811097]","[2236.3100825283723, 1774.9604887663145, 1408.7870735348185, 1118.1550412641861]",Major_3rd,"[17.0, 20.478503186202737, 19.530778301590974, 16.80986735992721]",True,505.12211530003697,507.4484542000573,507.4484542000573,508.6455991999246,['space'],0,[0.588179900078103],2.7368215397000313,3.7683480395935476,None,1,None,1,0,,,,,,,,,,,,,luctew,001,fr,0,0,2022-05-12_15h03.34.149,Cluster,2022.1.1,35.364680596551814,
,,,,3,0,3,0,1,0,1,0,,,time,,,,,,,,,,,,,,,,,,,,,,,,,,,,,,,,,,,,,,,,,,,,,,,,,,,,,,,,,,,,,,,,,,,,,,,,,,,,,,,,,,,,,,,,,,,,,,,,,,,,,,,,,,,,,,,,,,,508.94658540003,None,1148.6983549970344,13.0,0.00022455707992770455,1,"[0.7889639739395633, 0.7889639739395633, 0.7889639739395633, 0.7889639739395633]","[3701.670022991887, 168.71755572789442, 5139.1276445306985, 1168.8219386034368]",None,"[7.0, 6.07765557616859, 7.7998269890940355, 17.0]",False,509.96889829984866,513.3514551999979,513.3514551999979,514.5726949998643,['space'],1,[0.46873640012927353],4.176936169620603,5.1917584696784616,None,1,None,1,,,,,,,,,,,,,,luctew,001,fr,0,0,2022-05-12_15h03.34.149,Cluster,2022.1.1,35.364680596551814,
,,,,3,0,3,0,2,0,2,0,,,both,,,,,,,,,,,,,,,,,,,,,,,,,,,,,,,,,,,,,,,,,,,,,,,,,,,,,,,,,,,,,,,,,,,,,,,,,,,,,,,,,,,,,,,,,,,,,,,,,,,,,,,,,,,,,,,,,,,515.198118600063,None,535.8867312681471,2.0,8.289564896821243e-05,1,"[0.6473726310650036, 0.6473726310650036, 0.6473726310650036, 0.6473726310650036]","[212.66679023771422, 267.94336563407364, 337.5874865420479, 425.3335804754283]",Major_3rd,"[12.0, 17.722294426952526, 17.479758446912495, 16.220717981261956]",False,516.2076379000209,519.1773152998649,519.1773152998649,520.4125274999533,['space'],1,[0.3323270999826491],3.609774069627747,4.629897869657725,None,1,None,1,,,,,,,,,,,,,,luctew,001,fr,0,0,2022-05-12_15h03.34.149,Cluster,2022.1.1,35.364680596551814,
,,,,3,0,3,0,3,0,3,0,,,frequency,,,,,,,,,,,,,,,,,,,,,,,,,,,,,,,,,,,,,,,,,,,,,,,,,,,,,,,,,,,,,,,,,,,,,,,,,,,,,,,,,,,,,,,,,,,,,,,,,,,,,,,,,,,,,,,,,,,520.8712710998952,None,798.4000102862325,11.074255689082559,0.00013756421615865287,1,"[0.5227859342658632, 0.5266880626307303, 0.7584998424792435, 0.5489936530961607]","[2011.841958391815, 1596.800020572465, 1267.3810162197867, 1005.9209791959075]",Major_3rd,"[18.917660741372508, 20.567105356731734, 18.0, 15.913244425506182]",False,521.8761642999016,524.7039719000459,524.7039719000459,525.9164771998767,['space'],1,[0.24666380020789802],3.3631718400865793,4.397472840035334,None,1,None,1,,,,,,,,,,,,,,luctew,001,fr,0,0,2022-05-12_15h03.34.149,Cluster,2022.1.1,35.364680596551814,
,,,,3,0,3,0,4,0,4,0,,,none,,,,,,,,,,,,,,,,,,,,,,,,,,,,,,,,,,,,,,,,,,,,,,,,,,,,,,,,,,,,,,,,,,,,,,,,,,,,,,,,,,,,,,,,,,,,,,,,,,,,,,,,,,,,,,,,,,,526.3336316000205,None,2013.2271340027237,12.917660741372506,0.00033231645241167917,0,"[0.5252105365269492, 0.6779126307995913, 0.4794129148773165, 0.4547446492074544]","[222.33772578208263, 4197.187284943809, 179.15678491572947, 4774.769952968909]",None,"[13.0, 7.0, 7.0, 7.646420842152193]",False,527.3376633999869,530.0428557000123,530.0428557000123,531.2609361000359,None,0,,3.174560139887035,4.182243839837611,None,1,None,1,,,,,,,,,,,,,,luctew,001,fr,0,0,2022-05-12_15h03.34.149,Cluster,2022.1.1,35.364680596551814,
,,,,3,0,3,0,5,0,5,0,,,none,,,,,,,,,,,,,,,,,,,,,,,,,,,,,,,,,,,,,,,,,,,,,,,,,,,,,,,,,,,,,,,,,,,,,,,,,,,,,,,,,,,,,,,,,,,,,,,,,,,,,,,,,,,,,,,,,,,531.572821599897,None,406.12619817811805,2.0,9.598216571527888e-05,1,"[0.5892768229965125, 0.6756445522203234, 0.7247085783609811, 0.4130128842780489]","[5919.959592658416, 157.3886727654699, 509.32667086840934, 553.8839858018478]",None,"[7.527024518793752, 6.432035943248767, 17.28989976777316, 18.0]",False,533.508734199917,536.530048100045,536.530048100045,537.7624749999959,['space'],1,[0.5784333001356572],3.4069138295017183,4.420774929458275,None,1,None,1,,,,,,,,,,,,,,luctew,001,fr,0,0,2022-05-12_15h03.34.149,Cluster,2022.1.1,35.364680596551814,
,,,,3,0,3,0,6,0,6,0,,,both,,,,,,,,,,,,,,,,,,,,,,,,,,,,,,,,,,,,,,,,,,,,,,,,,,,,,,,,,,,,,,,,,,,,,,,,,,,,,,,,,,,,,,,,,,,,,,,,,,,,,,,,,,,,,,,,,,,537.9813584999647,None,,,,,"[0.7226781263619063, 0.7226781263619063, 0.7226781263619063, 0.7226781263619063]","[3878.447466344255, 4353.410087333071, 4886.537603758565, 5484.953007855614]",Tone,"[6.888018231818351, 7.072038840080568, 7.646420842152193, 7.763358327738311]",True,538.9812775999308,542.1841188999824,542.1841188999824,543.3848077000584,None,1,,3.9119852397125214,4.941763839684427,None,1,None,1,0,,,,,,,,,,,,,luctew,001,fr,0,0,2022-05-12_15h03.34.149,Cluster,2022.1.1,35.364680596551814,
,,,,3,0,3,0,7,0,7,0,,,both,,,,,,,,,,,,,,,,,,,,,,,,,,,,,,,,,,,,,,,,,,,,,,,,,,,,,,,,,,,,,,,,,,,,,,,,,,,,,,,,,,,,,,,,,,,,,,,,,,,,,,,,,,,,,,,,,,,543.9694546998944,None,2157.2035132064957,11.5448276054401,0.000295790376169465,1,"[0.5171327276232812, 0.5171327276232812, 0.5171327276232812, 0.5171327276232812]","[3424.3471261734876, 3050.746465175515, 2717.9061151960373, 2421.379074053939]",Tone,"[7.334290322598539, 9.227562175475335, 12.0, 14.131675275687215]",False,544.9879989000037,547.5732441998553,547.5732441998553,548.7776748000178,['space'],1,[0.6260086002293974],3.088428439805284,4.105249939719215,None,1,None,1,,,,,,,,,,,,,,luctew,001,fr,0,0,2022-05-12_15h03.34.149,Cluster,2022.1.1,35.364680596551814,
,,,,3,0,3,0,8,0,8,0,,,time,,,,,,,,,,,,,,,,,,,,,,,,,,,,,,,,,,,,,,,,,,,,,,,,,,,,,,,,,,,,,,,,,,,,,,,,,,,,,,,,,,,,,,,,,,,,,,,,,,,,,,,,,,,,,,,,,,,549.1461417998653,None,4027.7657467215126,0.8880182318183509,9.509210983002142e-05,0,"[0.4140888900012265, 0.4140888900012265, 0.4140888900012265, 0.4140888900012265]","[749.14983675091, 6925.712063874281, 138.81390468537455, 4016.2344063971505]",None,"[18.0, 6.648283391991938, 9.0, 6.888018231818351]",False,550.1611001000274,552.4372983998619,552.4372983998619,553.6456629000604,None,0,,2.679590239888057,3.6941536399535835,['space'],0,None,1,,[-0.05001879995688796],,,,,,,,,,,,luctew,001,fr,0,0,2022-05-12_15h03.34.149,Cluster,2022.1.1,35.364680596551814,
,,,,3,0,3,0,9,0,9,0,,,both,,,,,,,,,,,,,,,,,,,,,,,,,,,,,,,,,,,,,,,,,,,,,,,,,,,,,,,,,,,,,,,,,,,,,,,,,,,,,,,,,,,,,,,,,,,,,,,,,,,,,,,,,,,,,,,,,,,553.9092290999833,None,8000.0,0.0,0.0001815390273850507,1,"[0.47184521661232837, 0.47184521661232837, 0.47184521661232837, 0.47184521661232837]","[5039.684199579492, 5656.8542494923795, 6349.604207872798, 7127.189745122714]",Tone,"[7.646420842152193, 7.763358327738311, 7.1307020185210135, 6.648283391991938]",False,554.9244595998898,557.3861242998391,557.3861242998391,558.6151401000097,['space'],1,[0.4592051000799984],2.932835669722408,3.964164269855246,None,1,None,1,,,,,,,,,,,,,,luctew,001,fr,0,0,2022-05-12_15h03.34.149,Cluster,2022.1.1,35.364680596551814,
,,,,3,0,3,0,10,0,10,0,,,none,,,,,,,,,,,,,,,,,,,,,,,,,,,,,,,,,,,,,,,,,,,,,,,,,,,,,,,,,,,,,,,,,,,,,,,,,,,,,,,,,,,,,,,,,,,,,,,,,,,,,,,,,,,,,,,,,,,558.9310474998783,None,,,,,"[0.4979065829486607, 0.4038629934808319, 0.4373359483182475, 0.5413756124187337]","[3334.752479888945, 5092.729253795757, 130.33149867076594, 182.2729056165471]",None,"[8.0, 7.646420842152193, 10.0, 7.0]",True,559.9237033000682,562.3033729000017,562.3033729000017,563.5181376999244,['space'],0,[0.09455980011262],2.894528939621523,3.9244058397598565,None,1,None,1,0,,,,,,,,,,,,,luctew,001,fr,0,0,2022-05-12_15h03.34.149,Cluster,2022.1.1,35.364680596551814,
,,,,3,0,3,0,11,0,11,0,,,time,,,,,,,,,,,,,,,,,,,,,,,,,,,,,,,,,,,,,,,,,,,,,,,,,,,,,,,,,,,,,,,,,,,,,,,,,,,,,,,,,,,,,,,,,,,,,,,,,,,,,,,,,,,,,,,,,,,563.9017997998744,None,164.93848884661182,8.0,0.0009875116261049233,1,"[0.6648593855067682, 0.6648593855067682, 0.6648593855067682, 0.6648593855067682]","[4899.912358324769, 1134.330020938684, 4131.9267530847255, 7321.641918946604]",None,"[7.646420842152193, 16.80986735992721, 7.0, 6.182762787440416]",False,564.9199337998871,567.9346857999917,567.9346857999917,569.1593204999808,['space'],1,[0.573506599990651],3.6827214697841555,4.697009369730949,None,1,None,1,,,,,,,,,,,,,,luctew,001,fr,0,0,2022-05-12_15h03.34.149,Cluster,2022.1.1,35.364680596551814,
,,,,3,0,3,0,12,0,12,0,,,both,,,,,,,,,,,,,,,,,,,,,,,,,,,,,,,,,,,,,,,,,,,,,,,,,,,,,,,,,,,,,,,,,,,,,,,,,,,,,,,,,,,,,,,,,,,,,,,,,,,,,,,,,,,,,,,,,,,569.6538601999637,None,434.4712386460801,10.220717981261956,0.0002426033983878436,1,"[0.5169686814709227, 0.5169686814709227, 0.5169686814709227, 0.5169686814709227]","[273.69972957204754, 307.217559077162, 344.84005063835707, 387.0698695786382]",Tone,"[17.722294426952526, 17.98566910694344, 17.0, 16.351771473087013]",False,570.6480179999489,573.233675400028,573.233675400028,574.4566389999818,['space'],1,[0.3935946000274271],3.0776672398205847,4.106790439924225,None,1,None,1,,,,,,,,,,,,,,luctew,001,fr,0,0,2022-05-12_15h03.34.149,Cluster,2022.1.1,35.364680596551814,
,,,,3,0,3,0,13,0,13,0,,,both,,,,,,,,,,,,,,,,,,,,,,,,,,,,,,,,,,,,,,,,,,,,,,,,,,,,,,,,,,,,,,,,,,,,,,,,,,,,,,,,,,,,,,,,,,,,,,,,,,,,,,,,,,,,,,,,,,,574.817888099933,None,125.0,12.0,0.002877199686685786,1,"[0.5904240706752032, 0.5904240706752032, 0.5904240706752032, 0.5904240706752032]","[314.9802624737183, 250.00000000000003, 198.42513149602496, 157.49013123685916]",Major_3rd,"[17.98566910694344, 16.631434731510733, 10.0, 6.432035943248767]",False,576.9269156998489,579.7289020998869,579.7289020998869,580.9375491000246,['space'],1,[0.014784300001338124],3.3664656095206738,4.398312809411436,None,1,None,1,,,,,,,,,,,,,,luctew,001,fr,0,0,2022-05-12_15h03.34.149,Cluster,2022.1.1,35.364680596551814,
,,,,3,0,3,0,14,0,14,0,,,both,,,,,,,,,,,,,,,,,,,,,,,,,,,,,,,,,,,,,,,,,,,,,,,,,,,,,,,,,,,,,,,,,,,,,,,,,,,,,,,,,,,,,,,,,,,,,,,,,,,,,,,,,,,,,,,,,,,581.3839872998651,None,,,,,"[0.541686037540019, 0.541686037540019, 0.541686037540019, 0.541686037540019]","[7091.9167917876575, 6318.179578961572, 5628.858087877333, 5014.742455083797]",Tone,"[6.648283391991938, 7.1307020185210135, 7.763358327738311, 7.646420842152193]",True,582.3930947000626,585.0494029000401,585.0494029000401,586.2824629000388,None,1,,3.176558039849624,4.20503314002417,None,1,None,1,0,,,,,,,,,,,,,luctew,001,fr,0,0,2022-05-12_15h03.34.149,Cluster,2022.1.1,35.364680596551814,
,,,,3,0,3,0,15,0,15,0,,,time,,,,,,,,,,,,,,,,,,,,,,,,,,,,,,,,,,,,,,,,,,,,,,,,,,,,,,,,,,,,,,,,,,,,,,,,,,,,,,,,,,,,,,,,,,,,,,,,,,,,,,,,,,,,,,,,,,,586.6464350998867,None,4263.713876215826,1.0720388400805678,0.00011549547767683532,0,"[0.4377095888968438, 0.4377095888968438, 0.4377095888968438, 0.4377095888968438]","[516.9496316227714, 731.6951792161149, 132.57247559693346, 470.63543650893615]",None,"[17.28989976777316, 18.0, 10.0, 16.64525601674326]",False,587.6667541998904,590.0163859999739,590.0163859999739,591.2484937999398,None,0,,2.7591084397863597,3.779979039914906,None,1,None,1,,,,,,,,,,,,,,luctew,001,fr,0,0,2022-05-12_15h03.34.149,Cluster,2022.1.1,35.364680596551814,
,,,,3,0,3,0,16,0,16,0,,,both,,,,,,,,,,,,,,,,,,,,,,,,,,,,,,,,,,,,,,,,,,,,,,,,,,,,,,,,,,,,,,,,,,,,,,,,,,,,,,,,,,,,,,,,,,,,,,,,,,,,,,,,,,,,,,,,,,,591.5088932998478,None,4538.373078055194,1.3689811775385272,0.00014163641268808528,0,"[0.6713075469892519, 0.6713075469892519, 0.6713075469892519, 0.6713075469892519]","[900.5272747911213, 1349.266388740009, 2021.6153788409993, 3029.000628840203]",Perfect_5th,"[16.422498541154127, 19.0, 18.917660741372508, 9.227562175475335]",False,592.5062163998373,595.555932899937,595.555932899937,596.7898283000104,None,0,,3.7000952397938818,4.708065939834341,None,1,None,1,,,,,,,,,,,,,,luctew,001,fr,0,0,2022-05-12_15h03.34.149,Cluster,2022.1.1,35.364680596551814,
,,,,3,0,3,0,17,0,17,0,,,none,,,,,,,,,,,,,,,,,,,,,,,,,,,,,,,,,,,,,,,,,,,,,,,,,,,,,,,,,,,,,,,,,,,,,,,,,,,,,,,,,,,,,,,,,,,,,,,,,,,,,,,,,,,,,,,,,,,597.2744157998823,None,405.60304244447667,10.113979272962508,0.00024436654764914444,1,"[0.7436661729893614, 0.5529214479509224, 0.45267323442187124, 0.4080930570192364]","[1758.8239958051363, 301.67618289028627, 2467.228058152641, 1331.1043858550297]",None,"[20.478503186202737, 18.0, 14.131675275687215, 18.625992675863763]",False,598.2750070998445,601.0597389999311,601.0597389999311,602.2959127000067,['space'],1,[0.4100380002055317],3.1627851398661733,4.17847103998065,None,1,None,1,,,,,,,,,,,,,,luctew,001,fr,0,0,2022-05-12_15h03.34.149,Cluster,2022.1.1,35.364680596551814,
,,,,3,0,3,0,18,0,18,0,,,none,,,,,,,,,,,,,,,,,,,,,,,,,,,,,,,,,,,,,,,,,,,,,,,,,,,,,,,,,,,,,,,,,,,,,,,,,,,,,,,,,,,,,,,,,,,,,,,,,,,,,,,,,,,,,,,,,,,602.5122568998486,None,615.5722066724584,9.0,0.00015054502551404273,1,"[0.6272914400362422, 0.5600147508102374, 0.5421607801186845, 0.5955112194686843]","[710.8557816294199, 300.2087455484217, 3503.2148228295728, 131.04600879325264]",None,"[18.434686992489542, 18.0, 7.334290322598539, 10.0]",False,604.4458794000093,607.203930699965,607.203930699965,608.4222247998696,['space'],1,[0.26104240003041923],3.349025429226458,4.365802429383621,None,1,None,1,,,,,,,,,,,,,,luctew,001,fr,0,0,2022-05-12_15h03.34.149,Cluster,2022.1.1,35.364680596551814,
,,,,3,0,3,0,19,0,19,0,,,none,,,,,,,,,,,,,,,,,,,,,,,,,,,,,,,,,,,,,,,,,,,,,,,,,,,,,,,,,,,,,,,,,,,,,,,,,,,,,,,,,,,,,,,,,,,,,,,,,,,,,,,,,,,,,,,,,,,608.8603852998931,None,3724.045395299126,0.9448605021024403,8.818564685214026e-05,0,"[0.5067750923274188, 0.7908409513361576, 0.6992916470834025, 0.4095630146805392]","[261.145882079966, 2021.476794370387, 5479.396548511627, 7306.4851146624]",None,"[17.0, 18.917660741372508, 7.763358327738311, 6.182762787440416]",False,609.853091099998,612.8734478000551,612.8734478000551,614.1045287000015,None,0,,3.4355759397149086,4.455738239688799,None,1,None,1,,,,,,,,,,,,,,luctew,001,fr,0,0,2022-05-12_15h03.34.149,Cluster,2022.1.1,35.364680596551814,
,,,,4,0,4,0,0,0,0,0,,,frequency,,,,,,,,,,,,,,,,,,,,,,,,,,,,,,,,,,,,,,,,,,,,,,,,,,,,,,,,,,,,,,,,,,,,,,,,,,,,,,,,,,,,,,,,,,,,,,,,,,,,,,,,,,,,,,,,,,,620.4079517000355,None,,,,,"[0.42781761326852036, 0.4598181883247967, 0.6492987074795931, 0.686561862959856]","[1241.3862452570227, 1859.977796405969, 2786.817895188559, 4175.508974327596]",Perfect_5th,"[17.666362963778077, 19.919337459087675, 11.0, 7.0]",True,621.3957308998797,623.973752199905,623.973752199905,625.1997761998791,['space'],0,[0.4327630999032408],3.2519263396970928,4.278270839713514,None,1,None,1,0,,,,,,,,,,,,,luctew,001,fr,0,0,2022-05-12_15h03.34.149,Cluster,2022.1.1,35.364680596551814,
,,,,4,0,4,0,1,0,1,0,,,time,,,,,,,,,,,,,,,,,,,,,,,,,,,,,,,,,,,,,,,,,,,,,,,,,,,,,,,,,,,,,,,,,,,,,,,,,,,,,,,,,,,,,,,,,,,,,,,,,,,,,,,,,,,,,,,,,,,625.7300996000413,None,2639.015821545789,6.0,0.0001541470957770084,1,"[0.7673636101659622, 0.7673636101659622, 0.7673636101659622, 0.7673636101659622]","[3032.863790664056, 792.2878087196884, 7270.6497791606125, 186.03472933350542]",None,"[9.227562175475335, 17.07425568908256, 6.182762787440416, 8.0]",False,626.7454792000353,630.0761202999856,630.0761202999856,631.291956699919,['space'],1,[0.5560438001994044],4.088354570092633,5.125199970090762,None,1,None,1,,,,,,,,,,,,,,luctew,001,fr,0,0,2022-05-12_15h03.34.149,Cluster,2022.1.1,35.364680596551814,
,,,,4,0,4,0,2,0,2,0,,,frequency,,,,,,,,,,,,,,,,,,,,,,,,,,,,,,,,,,,,,,,,,,,,,,,,,,,,,,,,,,,,,,,,,,,,,,,,,,,,,,,,,,,,,,,,,,,,,,,,,,,,,,,,,,,,,,,,,,,631.9242986000609,None,8000.0,-1.0,0.00016179682846481421,1,"[0.5848375083608341, 0.4674077218796662, 0.5205348696327244, 0.40989178559195016]","[3174.8021039364003, 4000.0000000000014, 5039.684199579494, 6349.604207872799]",Major_3rd,"[8.096687302623646, 6.888018231818351, 7.646420842152193, 7.1307020185210135]",False,632.9526797998697,635.5633614000399,635.5633614000399,636.7695158999413,['space'],1,[0.19077970017679036],3.0306973699480295,4.061225969810039,None,1,None,1,,,,,,,,,,,,,,luctew,001,fr,0,0,2022-05-12_15h03.34.149,Cluster,2022.1.1,35.364680596551814,
,,,,4,0,4,0,3,0,3,0,,,time,,,,,,,,,,,,,,,,,,,,,,,,,,,,,,,,,,,,,,,,,,,,,,,,,,,,,,,,,,,,,,,,,,,,,,,,,,,,,,,,,,,,,,,,,,,,,,,,,,,,,,,,,,,,,,,,,,,637.0491579000372,None,3410.4026922736675,1.3342903225985396,8.580950138127899e-05,0,"[0.42643653708351126, 0.42643653708351126, 0.42643653708351126, 0.42643653708351126]","[6315.454931759975, 2107.4771620755423, 2389.3237759920557, 240.62855021989864]",None,"[7.1307020185210135, 18.0, 15.0, 16.0]",False,638.0474779999349,640.3564110998996,640.3564110998996,641.5656049000099,None,0,,2.725526239722967,3.7525752398651093,None,1,['space'],0,,,[0.11599680013023317],,,,,,,,,,,luctew,001,fr,0,0,2022-05-12_15h03.34.149,Cluster,2022.1.1,35.364680596551814,
,,,,4,0,4,0,4,0,4,0,,,frequency,,,,,,,,,,,,,,,,,,,,,,,,,,,,,,,,,,,,,,,,,,,,,,,,,,,,,,,,,,,,,,,,,,,,,,,,,,,,,,,,,,,,,,,,,,,,,,,,,,,,,,,,,,,,,,,,,,,641.8651079998817,None,,,,,"[0.7737672190090488, 0.704637186780491, 0.6033850837522309, 0.6091841096700586]","[938.9172679205826, 626.6520944944187, 418.24009521513824, 279.1417738525182]",Perfect_5th,"[16.0, 18.86074235851716, 16.11397927296251, 18.0]",True,642.8617058000527,645.9845159000251,645.9845159000251,647.1907915000338,None,1,,3.7142950396519154,4.734700539615005,None,1,None,1,0,,,,,,,,,,,,,luctew,001,fr,0,0,2022-05-12_15h03.34.149,Cluster,2022.1.1,35.364680596551814,
,,,,4,0,4,0,5,0,5,0,,,both,,,,,,,,,,,,,,,,,,,,,,,,,,,,,,,,,,,,,,,,,,,,,,,,,,,,,,,,,,,,,,,,,,,,,,,,,,,,,,,,,,,,,,,,,,,,,,,,,,,,,,,,,,,,,,,,,,,647.6450650000479,None,406.12619817811805,-4.0,4.810503611239506e-05,1,"[0.4029172448861822, 0.4029172448861822, 0.4029172448861822, 0.4029172448861822]","[161.17128855494758, 203.06309908905908, 255.84347299919395, 322.34257710989505]",Major_3rd,"[6.07765557616859, 10.320213349737966, 17.0, 17.479758446912495]",False,648.6575229999144,650.8807677000295,650.8807677000295,652.0900791999884,['space'],1,[0.4335678000934422],2.645758169936016,3.6716902700718492,None,1,None,1,,,,,,,,,,,,,,luctew,001,fr,0,0,2022-05-12_15h03.34.149,Cluster,2022.1.1,35.364680596551814,
,,,,4,0,4,0,6,0,6,0,,,frequency,,,,,,,,,,,,,,,,,,,,,,,,,,,,,,,,,,,,,,,,,,,,,,,,,,,,,,,,,,,,,,,,,,,,,,,,,,,,,,,,,,,,,,,,,,,,,,,,,,,,,,,,,,,,,,,,,,,652.3695282000117,None,7785.794939762858,0.0,0.0001750459617946348,1,"[0.6245171372554796, 0.636403321647468, 0.5107602876339831, 0.7142198964512383]","[1544.8973847235306, 2314.7306845795433, 3468.1773657691356, 5196.394690995423]",Perfect_5th,"[20.223609845119196, 15.906518851508192, 7.334290322598539, 7.7998269890940355]",False,653.3659762998577,656.1591870998964,656.1591870998964,657.3605636998545,['space'],1,[0.20338770002126694],3.5013338399585336,4.527165739797056,None,1,None,1,,,,,,,,,,,,,,luctew,001,fr,0,0,2022-05-12_15h03.34.149,Cluster,2022.1.1,35.364680596551814,
,,,,4,0,4,0,7,0,7,0,,,time,,,,,,,,,,,,,,,,,,,,,,,,,,,,,,,,,,,,,,,,,,,,,,,,,,,,,,,,,,,,,,,,,,,,,,,,,,,,,,,,,,,,,,,,,,,,,,,,,,,,,,,,,,,,,,,,,,,657.9521292999852,None,8000.0,-1.0,0.00016179682846481421,1,"[0.5944277861321143, 0.5944277861321143, 0.5944277861321143, 0.5944277861321143]","[7344.630719159246, 888.6995608758272, 6091.789562456983, 3082.536243589695]",None,"[6.182762787440416, 16.422498541154127, 7.527024518793752, 9.0]",False,658.9639302999713,661.7829841000494,661.7829841000494,662.9966823998839,['space'],1,[0.2964252003002912],3.4026133697479963,4.421208869665861,None,1,None,1,,,,,,,,,,,,,,luctew,001,fr,0,0,2022-05-12_15h03.34.149,Cluster,2022.1.1,35.364680596551814,
,,,,4,0,4,0,8,0,8,0,,,none,,,,,,,,,,,,,,,,,,,,,,,,,,,,,,,,,,,,,,,,,,,,,,,,,,,,,,,,,,,,,,,,,,,,,,,,,,,,,,,,,,,,,,,,,,,,,,,,,,,,,,,,,,,,,,,,,,,663.4260694999248,None,,,,,"[0.5439396250729931, 0.5458871281855644, 0.5818568952345179, 0.45189916166943733]","[138.0446415120365, 2428.4231036494675, 813.6823175611676, 6630.903617538153]",None,"[9.0, 14.131675275687215, 17.07425568908256, 7.0]",True,664.4251264999621,667.1333282999694,667.1333282999694,668.3359278999269,['space'],0,[0.7489654002711177],3.1303802400361747,4.144543040078133,None,1,None,1,0,,,,,,,,,,,,,luctew,001,fr,0,0,2022-05-12_15h03.34.149,Cluster,2022.1.1,35.364680596551814,
,,,,4,0,4,0,9,0,9,0,,,time,,,,,,,,,,,,,,,,,,,,,,,,,,,,,,,,,,,,,,,,,,,,,,,,,,,,,,,,,,,,,,,,,,,,,,,,,,,,,,,,,,,,,,,,,,,,,,,,,,,,,,,,,,,,,,,,,,,668.6237731999718,None,729.7171622624234,12.000000000000002,0.0001688777886138851,1,"[0.7926340201916333, 0.7926340201916333, 0.7926340201916333, 0.7926340201916333]","[476.4091978596322, 315.3351346274286, 439.0267735658542, 439.99899798104497]",None,"[17.0, 17.98566910694344, 16.220717981261956, 16.220717981261956]",False,669.6189023000188,673.0331429999787,673.0331429999787,674.2596783000045,['space'],1,[0.2767569001298398],4.199661239981651,5.233127240091562,None,1,None,1,,,,,,,,,,,,,,luctew,001,fr,0,0,2022-05-12_15h03.34.149,Cluster,2022.1.1,35.364680596551814,
,,,,4,0,4,0,10,0,10,0,,,none,,,,,,,,,,,,,,,,,,,,,,,,,,,,,,,,,,,,,,,,,,,,,,,,,,,,,,,,,,,,,,,,,,,,,,,,,,,,,,,,,,,,,,,,,,,,,,,,,,,,,,,,,,,,,,,,,,,674.9143266000319,None,307.7861033362292,5.0,0.0001889663783349048,0,"[0.7511879745154226, 0.6022357011619568, 0.4020024313466783, 0.5296054070318348]","[7802.369021197071, 431.205479145547, 197.9193379585659, 7190.179295405287]",None,"[6.0, 16.220717981261956, 10.0, 6.648283391991938]",False,675.9275263999589,678.7002014999744,678.7002014999744,679.9177943998948,None,0,,3.3169400698971003,4.333279569866136,None,1,None,1,,,,,,,,,,,,,,luctew,001,fr,0,0,2022-05-12_15h03.34.149,Cluster,2022.1.1,35.364680596551814,
,,,,4,0,4,0,11,0,11,0,,,none,,,,,,,,,,,,,,,,,,,,,,,,,,,,,,,,,,,,,,,,,,,,,,,,,,,,,,,,,,,,,,,,,,,,,,,,,,,,,,,,,,,,,,,,,,,,,,,,,,,,,,,,,,,,,,,,,,,680.2998889000155,None,2503.36324363647,8.0,0.0002152345488407148,0,"[0.7003666103846561, 0.7058970241700114, 0.5780713647913055, 0.7292892979303215]","[6878.7966519125475, 6123.055957208761, 132.838134492852, 144.4287438304401]",None,"[6.648283391991938, 7.527024518793752, 10.0, 7.662260161472233]",False,681.2935271000024,684.289235800039,684.289235800039,685.5038558999076,None,0,,3.737667439971119,4.748938139760867,None,1,['space'],0,,,[0.45546660013496876],,,,,,,,,,,luctew,001,fr,0,0,2022-05-12_15h03.34.149,Cluster,2022.1.1,35.364680596551814,
,,,,4,0,4,0,12,0,12,0,,,none,,,,,,,,,,,,,,,,,,,,,,,,,,,,,,,,,,,,,,,,,,,,,,,,,,,,,,,,,,,,,,,,,,,,,,,,,,,,,,,,,,,,,,,,,,,,,,,,,,,,,,,,,,,,,,,,,,,686.0958749998827,None,8000.0,-1.0,0.00016179682846481421,1,"[0.6078241290559593, 0.4449609800206249, 0.5166240239408917, 0.4093267342991454]","[826.4517432067955, 333.6240383335633, 411.9590103933762, 5413.391812647243]",None,"[17.0, 17.479758446912495, 16.11397927296251, 7.7998269890940355]",False,688.044108199887,690.6426945000421,690.6426945000421,691.8507174998522,['space'],1,[0.30593580030836165],2.992353029549122,4.001682329457253,None,1,None,1,,,,,,,,,,,,,,luctew,001,fr,0,0,2022-05-12_15h03.34.149,Cluster,2022.1.1,35.364680596551814,
,,,,4,0,4,0,13,0,13,0,,,none,,,,,,,,,,,,,,,,,,,,,,,,,,,,,,,,,,,,,,,,,,,,,,,,,,,,,,,,,,,,,,,,,,,,,,,,,,,,,,,,,,,,,,,,,,,,,,,,,,,,,,,,,,,,,,,,,,,692.0799684000667,None,1536.779877329285,14.223609845119196,0.0002643781866373701,1,"[0.61321673118184, 0.4608238802145178, 0.5551043129215121, 0.6473210141538008]","[4163.651492613055, 235.5700038035565, 134.2286234433537, 1132.2373041739615]",None,"[7.0, 15.0, 9.506527519749419, 16.80986735992721]",False,693.0794937999453,695.7488046998624,695.7488046998624,696.9831081999,['space'],1,[0.2744278002064675],3.294228539802134,4.322316539706662,None,1,None,1,,,,,,,,,,,,,,luctew,001,fr,0,0,2022-05-12_15h03.34.149,Cluster,2022.1.1,35.364680596551814,
,,,,4,0,4,0,14,0,14,0,,,time,,,,,,,,,,,,,,,,,,,,,,,,,,,,,,,,,,,,,,,,,,,,,,,,,,,,,,,,,,,,,,,,,,,,,,,,,,,,,,,,,,,,,,,,,,,,,,,,,,,,,,,,,,,,,,,,,,,697.4574531998951,None,500.0,0.0,7.144469792555515e-05,1,"[0.4852191378351063, 0.4852191378351063, 0.4852191378351063, 0.4852191378351063]","[230.89347721811976, 292.3790354731252, 212.57358478203273, 2440.7059901368575]",None,"[14.887402809549101, 18.138518104018644, 12.0, 14.131675275687215]",False,698.552083699964,701.034496499924,701.034496499924,702.2423090999946,['space'],1,[0.2709256000816822],2.9626778301317245,3.9974995302036405,None,1,None,1,,,,,,,,,,,,,,luctew,001,fr,0,0,2022-05-12_15h03.34.149,Cluster,2022.1.1,35.364680596551814,
,,,,4,0,4,0,15,0,15,0,,,frequency,,,,,,,,,,,,,,,,,,,,,,,,,,,,,,,,,,,,,,,,,,,,,,,,,,,,,,,,,,,,,,,,,,,,,,,,,,,,,,,,,,,,,,,,,,,,,,,,,,,,,,,,,,,,,,,,,,,702.607069300022,None,176.7766952966369,11.0,0.0012419212914516222,1,"[0.5420007654417845, 0.703971406399141, 0.6301349930916221, 0.4634738690562011]","[445.44935907016975, 353.55339059327383, 280.6155120773433, 222.72467953508485]",Major_3rd,"[16.220717981261956, 16.85773133919742, 18.0, 13.0]",False,703.6312426000368,706.5129293999635,706.5129293999635,707.7323310000356,['space'],1,[0.8476545000448823],3.3685671696439385,4.402289169607684,None,1,None,1,,,,,,,,,,,,,,luctew,001,fr,0,0,2022-05-12_15h03.34.149,Cluster,2022.1.1,35.364680596551814,
,,,,4,0,4,0,16,0,16,0,,,both,,,,,,,,,,,,,,,,,,,,,,,,,,,,,,,,,,,,,,,,,,,,,,,,,,,,,,,,,,,,,,,,,,,,,,,,,,,,,,,,,,,,,,,,,,,,,,,,,,,,,,,,,,,,,,,,,,,708.0719262000639,None,150.6214665475719,1.0,0.0005549690458593974,0,"[0.5426578109293025, 0.5426578109293025, 0.5426578109293025, 0.5426578109293025]","[759.0846250772893, 506.62820512044203, 338.13375972069855, 225.67720925777135]",Perfect_5th,"[17.79986765530967, 17.28989976777316, 17.479758446912495, 14.0]",False,709.0638118998613,711.7242896000389,711.7242896000389,712.9323543000501,None,0,,3.1916349397506565,4.215016539907083,None,1,None,1,,,,,,,,,,,,,,luctew,001,fr,0,0,2022-05-12_15h03.34.149,Cluster,2022.1.1,35.364680596551814,
,,,,4,0,4,0,17,0,17,0,,,both,,,,,,,,,,,,,,,,,,,,,,,,,,,,,,,,,,,,,,,,,,,,,,,,,,,,,,,,,,,,,,,,,,,,,,,,,,,,,,,,,,,,,,,,,,,,,,,,,,,,,,,,,,,,,,,,,,,713.3353808000684,None,,,,,"[0.7472933092472999, 0.7472933092472999, 0.7472933092472999, 0.7472933092472999]","[1634.2701888144938, 2059.0514121030496, 2594.2422169243955, 3268.5403776289877]",Major_3rd,"[20.567105356731734, 18.0, 13.0, 8.0]",True,714.3299817000516,717.5963777999859,717.5963777999859,718.8078364999965,None,1,,3.999871339648962,5.013501939829439,None,1,None,1,0,,,,,,,,,,,,,luctew,001,fr,0,0,2022-05-12_15h03.34.149,Cluster,2022.1.1,35.364680596551814,
,,,,4,0,4,0,18,0,18,0,,,both,,,,,,,,,,,,,,,,,,,,,,,,,,,,,,,,,,,,,,,,,,,,,,,,,,,,,,,,,,,,,,,,,,,,,,,,,,,,,,,,,,,,,,,,,,,,,,,,,,,,,,,,,,,,,,,,,,,719.3946241000667,None,329.87697769322364,0.0,9.475893972752513e-05,0,"[0.4970316311168229, 0.4970316311168229, 0.4970316311168229, 0.4970316311168229]","[1662.4757922855758, 1109.5694720678453, 740.5487761432823, 494.2570101764482]",Perfect_5th,"[20.567105356731734, 16.197528270719356, 18.0, 17.28989976777316]",False,720.42425739998,722.9459462000523,722.9459462000523,724.1625011998694,None,0,,3.021501269657165,4.035914169624448,None,1,None,1,,,,,,,,,,,,,,luctew,001,fr,0,0,2022-05-12_15h03.34.149,Cluster,2022.1.1,35.364680596551814,
,,,,4,0,4,0,19,0,19,0,,,both,,,,,,,,,,,,,,,,,,,,,,,,,,,,,,,,,,,,,,,,,,,,,,,,,,,,,,,,,,,,,,,,,,,,,,,,,,,,,,,,,,,,,,,,,,,,,,,,,,,,,,,,,,,,,,,,,,,724.5001349998638,None,708.1296057329774,12.434686992489542,0.00018546757284823752,0,"[0.7276990101326895, 0.7276990101326895, 0.7276990101326895, 0.7276990101326895]","[1784.374792633471, 1416.2592114659549, 1124.0856810703547, 892.1873963167355]",Major_3rd,"[20.478503186202737, 19.530778301590974, 16.80986735992721, 16.422498541154127]",False,725.4993785000406,728.7166917000432,728.7166917000432,729.9515402000397,None,0,,3.9417302396614105,4.950474439654499,None,1,None,1,,,,,,,,,,,,,,luctew,001,fr,0,0,2022-05-12_15h03.34.149,Cluster,2022.1.1,35.364680596551814,
,,,,5,0,5,0,0,0,0,0,,,none,,,,,,,,,,,,,,,,,,,,,,,,,,,,,,,,,,,,,,,,,,,,,,,,,,,,,,,,,,,,,,,,,,,,,,,,,,,,,,,,,,,,,,,,,,,,,,,,,,,,,,,,,,,,,,,,,,,734.2752703998704,None,5278.031643091578,-1.0,0.00012699726140370812,1,"[0.6128122961440289, 0.4684528729145465, 0.40355811463780683, 0.7720445282703785]","[2409.72515608129, 317.14716532660793, 488.67512655639575, 595.9601228872967]",None,"[15.0, 17.98566910694344, 17.0, 18.86074235851716]",False,735.2922642000485,737.805099299876,737.805099299876,739.0292696000542,['space'],1,[0.20549480011686683],3.306604969780892,4.336104969959706,None,1,None,1,,,,,,,,,,,,,,luctew,001,fr,0,0,2022-05-12_15h03.34.149,Cluster,2022.1.1,35.364680596551814,
,,,,5,0,5,0,1,0,1,0,,,frequency,,,,,,,,,,,,,,,,,,,,,,,,,,,,,,,,,,,,,,,,,,,,,,,,,,,,,,,,,,,,,,,,,,,,,,,,,,,,,,,,,,,,,,,,,,,,,,,,,,,,,,,,,,,,,,,,,,,739.6657179999165,None,,,,,"[0.6265157055259135, 0.7306440459254143, 0.6798008581710462, 0.4646462199440344]","[1498.9610669154129, 2245.903974521984, 3365.0538190117545, 5041.883951096215]",Perfect_5th,"[20.0, 16.0, 8.0, 7.646420842152193]",True,740.655667199986,743.7328339999076,743.7328339999076,744.9416332999244,None,1,,3.5172197399660945,4.546259240014479,None,1,None,1,0,,,,,,,,,,,,,luctew,001,fr,0,0,2022-05-12_15h03.34.149,Cluster,2022.1.1,35.364680596551814,
,,,,5,0,5,0,2,0,2,0,,,frequency,,,,,,,,,,,,,,,,,,,,,,,,,,,,,,,,,,,,,,,,,,,,,,,,,,,,,,,,,,,,,,,,,,,,,,,,,,,,,,,,,,,,,,,,,,,,,,,,,,,,,,,,,,,,,,,,,,,745.2514221998863,None,341.1162396291683,11.0,0.00032586461309367016,1,"[0.6221629232927195, 0.4207100743576089, 0.4413589444918598, 0.7275279886092205]","[214.8897653848864, 241.2056062146402, 270.7441388153891, 303.90002062247885]",Tone,"[12.0, 16.0, 17.722294426952526, 18.0]",False,746.2485306998715,748.7688344998751,748.7688344998751,749.9744659999851,['space'],1,[0.48126160027459264],3.2461304399184883,4.280071139801294,None,1,None,1,,,,,,,,,,,,,,luctew,001,fr,0,0,2022-05-12_15h03.34.149,Cluster,2022.1.1,35.364680596551814,
,,,,5,0,5,0,3,0,3,0,,,time,,,,,,,,,,,,,,,,,,,,,,,,,,,,,,,,,,,,,,,,,,,,,,,,,,,,,,,,,,,,,,,,,,,,,,,,,,,,,,,,,,,,,,,,,,,,,,,,,,,,,,,,,,,,,,,,,,,750.5891621999908,None,276.2670342086516,12.0,0.000555977317616669,1,"[0.5931323232357824, 0.5931323232357824, 0.5931323232357824, 0.5931323232357824]","[3011.1681055781064, 767.3738790673756, 6326.381247950881, 702.499074611226]",None,"[9.227562175475335, 17.79986765530967, 7.1307020185210135, 18.434686992489542]",False,751.5846595000476,754.388844900066,754.388844900066,755.6112269998994,['space'],1,[0.2864977002609521],3.382481539621949,4.41191713954322,None,1,None,1,,,,,,,,,,,,,,luctew,001,fr,0,0,2022-05-12_15h03.34.149,Cluster,2022.1.1,35.364680596551814,
,,,,5,0,5,0,4,0,4,0,,,time,,,,,,,,,,,,,,,,,,,,,,,,,,,,,,,,,,,,,,,,,,,,,,,,,,,,,,,,,,,,,,,,,,,,,,,,,,,,,,,,,,,,,,,,,,,,,,,,,,,,,,,,,,,,,,,,,,,756.0541111999191,None,125.0,11.0,0.0025643069199568253,1,"[0.5561046876800979, 0.5561046876800979, 0.5561046876800979, 0.5561046876800979]","[299.83470983266534, 697.8251389330879, 784.5371479461246, 849.7931934508591]",None,"[18.0, 18.434686992489542, 17.79986765530967, 16.422498541154127]",False,758.2856294000521,760.9709344999865,760.9709344999865,762.184398500016,['space'],1,[0.45590810012072325],3.2598991591949016,4.267229559132829,None,1,None,1,,,,,,,,,,,,,,luctew,001,fr,0,0,2022-05-12_15h03.34.149,Cluster,2022.1.1,35.364680596551814,
,,,,5,0,5,0,5,0,5,0,,,time,,,,,,,,,,,,,,,,,,,,,,,,,,,,,,,,,,,,,,,,,,,,,,,,,,,,,,,,,,,,,,,,,,,,,,,,,,,,,,,,,,,,,,,,,,,,,,,,,,,,,,,,,,,,,,,,,,,762.5837180998642,None,,,,,"[0.5731697201620064, 0.5731697201620064, 0.5731697201620064, 0.5731697201620064]","[189.82590683665893, 297.2808669861651, 2775.210485340023, 2844.9205212887773]",None,"[8.201958806113415, 18.0, 11.0, 10.669625497967333]",True,763.5911528000142,766.3385375998914,766.3385375998914,767.5552016999573,None,1,,3.2991181400138885,4.315554040018469,None,1,None,1,0,,,,,,,,,,,,,luctew,001,fr,0,0,2022-05-12_15h03.34.149,Cluster,2022.1.1,35.364680596551814,
,,,,5,0,5,0,6,0,6,0,,,frequency,,,,,,,,,,,,,,,,,,,,,,,,,,,,,,,,,,,,,,,,,,,,,,,,,,,,,,,,,,,,,,,,,,,,,,,,,,,,,,,,,,,,,,,,,,,,,,,,,,,,,,,,,,,,,,,,,,,767.9540087999776,None,4594.793419988137,-3.0,8.839798350577628e-05,1,"[0.7064374760823304, 0.6461796668390303, 0.6050471050233486, 0.5948393528653857]","[7293.779908465733, 6498.019170849882, 5789.07694976151, 5157.481233758314]",Tone,"[6.182762787440416, 7.1307020185210135, 7.763358327738311, 7.7998269890940355]",False,768.9955463998485,771.9912705998868,771.9912705998868,773.1981522999704,['space'],1,[0.4760414999909699],3.598045069957152,4.629600969841704,None,1,None,1,,,,,,,,,,,,,,luctew,001,fr,0,0,2022-05-12_15h03.34.149,Cluster,2022.1.1,35.364680596551814,
,,,,5,0,5,0,7,0,7,0,,,none,,,,,,,,,,,,,,,,,,,,,,,,,,,,,,,,,,,,,,,,,,,,,,,,,,,,,,,,,,,,,,,,,,,,,,,,,,,,,,,,,,,,,,,,,,,,,,,,,,,,,,,,,,,,,,,,,,,773.6699216999114,None,778.4474728255855,11.799867655309667,0.0001530793336808405,1,"[0.48134931344282855, 0.6602297661783856, 0.6942995906947467, 0.5799226069007037]","[308.1086446850525, 503.8264674857861, 470.22956599220515, 327.3096057238102]",None,"[17.98566910694344, 17.28989976777316, 16.64525601674326, 17.479758446912495]",False,774.6862723999657,777.5428879000247,777.5428879000247,778.7682447000407,['space'],1,[0.35027400008402765],3.4268199398647994,4.4534654398448765,None,1,None,1,,,,,,,,,,,,,,luctew,001,fr,0,0,2022-05-12_15h03.34.149,Cluster,2022.1.1,35.364680596551814,
,,,,5,0,5,0,8,0,8,0,,,frequency,,,,,,,,,,,,,,,,,,,,,,,,,,,,,,,,,,,,,,,,,,,,,,,,,,,,,,,,,,,,,,,,,,,,,,,,,,,,,,,,,,,,,,,,,,,,,,,,,,,,,,,,,,,,,,,,,,,779.2046602000482,None,2929.783141336094,4.0,9.380570321297123e-05,0,"[0.4984649039906444, 0.5995317386967087, 0.5964537409857149, 0.7610874632687074]","[7382.590902792944, 5859.566282672189, 4650.740840595612, 3691.2954513964714]",Major_3rd,"[6.182762787440416, 7.763358327738311, 7.368981177538528, 7.0]",False,780.2021315998863,782.9119098000228,782.9119098000228,784.1431700000539,None,0,,3.461629639612511,4.478276139590889,None,1,None,1,,,,,,,,,,,,,,luctew,001,fr,0,0,2022-05-12_15h03.34.149,Cluster,2022.1.1,35.364680596551814,
,,,,5,0,5,0,9,0,9,0,,,frequency,,,,,,,,,,,,,,,,,,,,,,,,,,,,,,,,,,,,,,,,,,,,,,,,,,,,,,,,,,,,,,,,,,,,,,,,,,,,,,,,,,,,,,,,,,,,,,,,,,,,,,,,,,,,,,,,,,,784.7381327999756,None,574.3491774985172,8.0,0.00015032685425488555,1,"[0.6091179399672687, 0.7939437792095276, 0.6349918487432287, 0.5180328266284744]","[911.7224885582166, 812.2523963562353, 723.6346187201888, 644.6851542197893]",Tone,"[16.00155315542841, 17.07425568908256, 18.434686992489542, 18.816814774548483]",False,786.728927299846,789.7959360000677,789.7959360000677,791.014151699841,['space'],1,[0.26872380007989705],3.602441089693457,4.62500338954851,None,1,None,1,,,,,,,,,,,,,,luctew,001,fr,0,0,2022-05-12_15h03.34.149,Cluster,2022.1.1,35.364680596551814,
,,,,5,0,5,0,10,0,10,0,,,both,,,,,,,,,,,,,,,,,,,,,,,,,,,,,,,,,,,,,,,,,,,,,,,,,,,,,,,,,,,,,,,,,,,,,,,,,,,,,,,,,,,,,,,,,,,,,,,,,,,,,,,,,,,,,,,,,,,791.389049399877,None,176.7766952966369,12.0,0.0013934586077992473,1,"[0.4825749706563637, 0.4825749706563637, 0.4825749706563637, 0.4825749706563637]","[445.44935907016975, 353.55339059327383, 280.6155120773433, 222.72467953508485]",Major_3rd,"[16.220717981261956, 16.85773133919742, 18.0, 13.0]",False,792.3957785000093,794.8624847000465,794.8624847000465,796.0834604999982,['space'],1,[0.23821450024843216],2.9605393696110696,3.9912869695108384,None,1,None,1,,,,,,,,,,,,,,luctew,001,fr,0,0,2022-05-12_15h03.34.149,Cluster,2022.1.1,35.364680596551814,
,,,,5,0,5,0,11,0,11,0,,,time,,,,,,,,,,,,,,,,,,,,,,,,,,,,,,,,,,,,,,,,,,,,,,,,,,,,,,,,,,,,,,,,,,,,,,,,,,,,,,,,,,,,,,,,,,,,,,,,,,,,,,,,,,,,,,,,,,,796.4277933998965,None,4438.339692035778,1.0720388400805678,0.00012908911830529577,1,"[0.503094746265829, 0.503094746265829, 0.503094746265829, 0.503094746265829]","[1148.0142717571523, 3383.4741799191133, 3953.590097474283, 1096.1491923871663]",None,"[16.80986735992721, 7.334290322598539, 6.888018231818351, 16.197528270719356]",False,797.4382901999634,799.9661469999701,799.9661469999701,801.1816591999959,['space'],1,[0.2788864001631737],3.0433873396832496,4.069816239643842,None,1,None,1,,,,,,,,,,,,,,luctew,001,fr,0,0,2022-05-12_15h03.34.149,Cluster,2022.1.1,35.364680596551814,
,,,,5,0,5,0,12,0,12,0,,,none,,,,,,,,,,,,,,,,,,,,,,,,,,,,,,,,,,,,,,,,,,,,,,,,,,,,,,,,,,,,,,,,,,,,,,,,,,,,,,,,,,,,,,,,,,,,,,,,,,,,,,,,,,,,,,,,,,,801.564303799998,None,535.8867312681471,0.0,6.584635451124388e-05,0,"[0.6977177022439165, 0.49586751767799386, 0.6903009887408424, 0.4256698550002396]","[6018.301333444922, 129.68512069971968, 403.3426240633917, 2020.8629322319346]",None,"[7.527024518793752, 10.0, 16.11397927296251, 18.917660741372508]",False,802.5732447998598,805.491880199872,805.491880199872,806.6964765000157,None,0,,3.3590920697897673,4.367022969760001,None,1,None,1,,,,,,,,,,,,,,luctew,001,fr,0,0,2022-05-12_15h03.34.149,Cluster,2022.1.1,35.364680596551814,
,,,,5,0,5,0,13,0,13,0,,,frequency,,,,,,,,,,,,,,,,,,,,,,,,,,,,,,,,,,,,,,,,,,,,,,,,,,,,,,,,,,,,,,,,,,,,,,,,,,,,,,,,,,,,,,,,,,,,,,,,,,,,,,,,,,,,,,,,,,,806.9817653999198,None,3022.0675910085874,3.227562175475335,8.252473242983229e-05,1,"[0.4578455752176963, 0.735915387846009, 0.548262919373814, 0.7062608389999309]","[1903.7832860584044, 2136.9244868062656, 2398.6166365430167, 2692.3561429630136]",Tone,"[19.919337459087675, 17.544827605440098, 15.0, 12.0]",False,807.9826851999387,810.7675272000488,810.7675272000488,812.0023757000454,['space'],1,[0.1277027002070099],3.455559839727357,4.458091539796442,None,1,None,1,,,,,,,,,,,,,,luctew,001,fr,0,0,2022-05-12_15h03.34.149,Cluster,2022.1.1,35.364680596551814,
,,,,5,0,5,0,14,0,14,0,,,time,,,,,,,,,,,,,,,,,,,,,,,,,,,,,,,,,,,,,,,,,,,,,,,,,,,,,,,,,,,,,,,,,,,,,,,,,,,,,,,,,,,,,,,,,,,,,,,,,,,,,,,,,,,,,,,,,,,812.503384700045,None,1000.0,10.0,0.00013930605843148847,0,"[0.7749928296069872, 0.7749928296069872, 0.7749928296069872, 0.7749928296069872]","[148.5776671816059, 178.77280617132845, 239.57601154015913, 2344.5883525561812]",None,"[7.0, 7.0, 16.0, 15.0]",False,813.5366305999923,816.8993605999276,816.8993605999276,818.1089514000341,None,0,,4.123403869569302,5.144529469544068,None,1,None,1,,,,,,,,,,,,,,luctew,001,fr,0,0,2022-05-12_15h03.34.149,Cluster,2022.1.1,35.364680596551814,
,,,,5,0,5,0,15,0,15,0,,,frequency,,,,,,,,,,,,,,,,,,,,,,,,,,,,,,,,,,,,,,,,,,,,,,,,,,,,,,,,,,,,,,,,,,,,,,,,,,,,,,,,,,,,,,,,,,,,,,,,,,,,,,,,,,,,,,,,,,,818.7256437998731,None,,,,,"[0.44780567606256116, 0.7976507280204368, 0.6010652167794832, 0.7564292448911587]","[671.2166487469789, 447.9833667649582, 298.9930259815689, 199.55390359954737]",Perfect_5th,"[18.816814774548483, 16.220717981261956, 18.0, 10.0]",True,819.7288428999018,822.6137264999561,822.6137264999561,823.8170413000043,None,1,,3.6098749400116503,4.621273239841685,None,1,None,1,0,,,,,,,,,,,,,luctew,001,fr,0,0,2022-05-12_15h03.34.149,Cluster,2022.1.1,35.364680596551814,
,,,,5,0,5,0,16,0,16,0,,,time,,,,,,,,,,,,,,,,,,,,,,,,,,,,,,,,,,,,,,,,,,,,,,,,,,,,,,,,,,,,,,,,,,,,,,,,,,,,,,,,,,,,,,,,,,,,,,,,,,,,,,,,,,,,,,,,,,,824.3974218999501,None,387.8972255079401,10.351771473087013,0.0002624382125729183,1,"[0.7588140823982514, 0.7588140823982514, 0.7588140823982514, 0.7588140823982514]","[4123.475761083411, 6246.3101730627195, 631.0304637294614, 3360.3129242445953]",None,"[7.0, 7.527024518793752, 18.86074235851716, 8.0]",False,825.4033901998773,828.7156537000556,828.7156537000556,829.9194010999054,['space'],1,[0.23438249994069338],4.073549539549276,5.110345239751041,None,1,None,1,,,,,,,,,,,,,,luctew,001,fr,0,0,2022-05-12_15h03.34.149,Cluster,2022.1.1,35.364680596551814,
,,,,5,0,5,0,17,0,17,0,,,time,,,,,,,,,,,,,,,,,,,,,,,,,,,,,,,,,,,,,,,,,,,,,,,,,,,,,,,,,,,,,,,,,,,,,,,,,,,,,,,,,,,,,,,,,,,,,,,,,,,,,,,,,,,,,,,,,,,830.5775396998506,None,6062.8662660415985,-3.0,8.41269401965078e-05,1,"[0.5767376711302254, 0.5767376711302254, 0.5767376711302254, 0.5767376711302254]","[1131.8595353126145, 2044.7347495373713, 4936.702535372371, 554.9236208413956]",None,"[16.80986735992721, 18.917660741372508, 7.646420842152193, 18.0]",False,832.739423400024,835.4923292999156,835.4923292999156,836.6970193998422,['space'],1,[0.8642733001615852],3.335852899355814,4.368351399200037,None,1,None,1,,,,,,,,,,,,,,luctew,001,fr,0,0,2022-05-12_15h03.34.149,Cluster,2022.1.1,35.364680596551814,
,,,,5,0,5,0,18,0,18,0,,,none,,,,,,,,,,,,,,,,,,,,,,,,,,,,,,,,,,,,,,,,,,,,,,,,,,,,,,,,,,,,,,,,,,,,,,,,,,,,,,,,,,,,,,,,,,,,,,,,,,,,,,,,,,,,,,,,,,,837.1436586999334,None,627.1099872193142,12.860742358517161,0.00022689096125251302,1,"[0.6932968194735425, 0.5415533418063156, 0.43892610405302657, 0.718382407902411]","[6112.533819694197, 507.33429769923833, 249.96109908910034, 555.6557396153371]",None,"[7.527024518793752, 17.28989976777316, 16.631434731510733, 18.5574965404976]",False,838.1365862998646,840.8502376000397,840.8502376000397,842.0658928998746,['space'],1,[0.33964160014875233],3.4188008399214596,4.426954639842734,None,1,None,1,,,,,,,,,,,,,,luctew,001,fr,0,0,2022-05-12_15h03.34.149,Cluster,2022.1.1,35.364680596551814,
,,,,5,0,5,0,19,0,19,0,,,both,,,,,,,,,,,,,,,,,,,,,,,,,,,,,,,,,,,,,,,,,,,,,,,,,,,,,,,,,,,,,,,,,,,,,,,,,,,,,,,,,,,,,,,,,,,,,,,,,,,,,,,,,,,,,,,,,,,842.6284167999402,None,,,,,"[0.6684410471614994, 0.6684410471614994, 0.6684410471614994, 0.6684410471614994]","[4152.607873409082, 3295.9270533305016, 2615.979035833643, 2076.303936704541]",Major_3rd,"[7.0, 8.0, 12.343945930819206, 18.0]",True,843.6276558998507,846.6719616998453,846.6719616998453,847.8757112999447,['space'],0,[0.3646392000373453],3.6867729399818927,4.707206539809704,None,1,None,1,0,,,,,,,,,,,,,luctew,001,fr,0,0,2022-05-12_15h03.34.149,Cluster,2022.1.1,35.364680596551814,
,,,,6,0,6,0,0,0,0,0,,,frequency,,,,,,,,,,,,,,,,,,,,,,,,,,,,,,,,,,,,,,,,,,,,,,,,,,,,,,,,,,,,,,,,,,,,,,,,,,,,,,,,,,,,,,,,,,,,,,,,,,,,,,,,,,,,,,,,,,,852.5763900000602,None,125.0,12.0,0.002877199686685786,1,"[0.4861877263018477, 0.5232853888242995, 0.6110358823846627, 0.702895630538368]","[198.42513149602502, 176.77669529663694, 157.49013123685918, 140.30775603867164]",Tone,"[10.0, 6.695539679502874, 6.432035943248767, 8.0]",False,853.5754654000048,856.2211873999331,856.2211873999331,857.4499488999136,['space'],1,[0.19772240007296205],3.375444569857791,4.377718769945204,None,1,None,1,,,,,,,,,,,,,,luctew,001,fr,0,0,2022-05-12_15h03.34.149,Cluster,2022.1.1,35.364680596551814,
,,,,6,0,6,0,1,0,1,0,,,frequency,,,,,,,,,,,,,,,,,,,,,,,,,,,,,,,,,,,,,,,,,,,,,,,,,,,,,,,,,,,,,,,,,,,,,,,,,,,,,,,,,,,,,,,,,,,,,,,,,,,,,,,,,,,,,,,,,,,857.9965651000384,None,6445.548689343199,1.1307020185210135,0.00015310828329108192,1,"[0.5776360367354066, 0.5407400696243858, 0.42124122410491793, 0.7643094521277962]","[4060.441235912903, 4557.691186702639, 5115.835384987821, 5742.331065047]",Tone,"[6.888018231818351, 7.368981177538528, 7.7998269890940355, 7.763358327738311]",False,859.0043696998619,861.5903892000206,861.5903892000206,862.8010434999596,['space'],1,[0.34881140012294054],3.3415840396191925,4.368244839599356,None,1,None,1,,,,,,,,,,,,,,luctew,001,fr,0,0,2022-05-12_15h03.34.149,Cluster,2022.1.1,35.364680596551814,
,,,,6,0,6,0,2,0,2,0,,,frequency,,,,,,,,,,,,,,,,,,,,,,,,,,,,,,,,,,,,,,,,,,,,,,,,,,,,,,,,,,,,,,,,,,,,,,,,,,,,,,,,,,,,,,,,,,,,,,,,,,,,,,,,,,,,,,,,,,,863.4293702000286,None,1148.6983549970344,10.0,0.00015897423808843036,0,"[0.40237697340609907, 0.6709825382608177, 0.7333249647254882, 0.4367022279807864]","[227.93062213955412, 341.51006418859873, 511.6869459983872, 766.6641723347999]",Perfect_5th,"[14.0, 17.0, 17.28989976777316, 17.79986765530967]",False,865.4338713998441,868.259943400044,868.259943400044,869.4849808998406,None,0,,3.3040229193866253,4.339323119493201,None,1,None,1,,,,,,,,,,,,,,luctew,001,fr,0,0,2022-05-12_15h03.34.149,Cluster,2022.1.1,35.364680596551814,
,,,,6,0,6,0,3,0,3,0,,,time,,,,,,,,,,,,,,,,,,,,,,,,,,,,,,,,,,,,,,,,,,,,,,,,,,,,,,,,,,,,,,,,,,,,,,,,,,,,,,,,,,,,,,,,,,,,,,,,,,,,,,,,,,,,,,,,,,,869.8126687998883,None,,,,,"[0.4080179864539464, 0.4080179864539464, 0.4080179864539464, 0.4080179864539464]","[6508.311885532147, 335.18603260713763, 555.7861672717337, 4065.4015458004046]",None,"[7.1307020185210135, 17.479758446912495, 18.5574965404976, 6.888018231818351]",True,870.8294923999347,873.1015190999024,873.1015190999024,874.3324603999499,['space'],0,[0.6776963002048433],2.6610605400055647,3.682511739898473,None,1,None,1,0,,,,,,,,,,,,,luctew,001,fr,0,0,2022-05-12_15h03.34.149,Cluster,2022.1.1,35.364680596551814,
,,,,6,0,6,0,4,0,4,0,,,time,,,,,,,,,,,,,,,,,,,,,,,,,,,,,,,,,,,,,,,,,,,,,,,,,,,,,,,,,,,,,,,,,,,,,,,,,,,,,,,,,,,,,,,,,,,,,,,,,,,,,,,,,,,,,,,,,,,874.5841969999019,None,274.8779357938527,12.0,0.000561835955556961,1,"[0.5772278976726333, 0.5772278976726333, 0.5772278976726333, 0.5772278976726333]","[6767.722694794881, 185.53145719978556, 440.04096499746043, 4893.20168864688]",None,"[7.0, 8.0, 16.220717981261956, 7.646420842152193]",False,875.591251200065,878.3681882000528,878.3681882000528,879.5804107000586,['space'],1,[0.3154639001004398],3.340298139723018,4.3450216399505734,None,1,None,1,,,,,,,,,,,,,,luctew,001,fr,0,0,2022-05-12_15h03.34.149,Cluster,2022.1.1,35.364680596551814,
,,,,6,0,6,0,5,0,5,0,,,none,,,,,,,,,,,,,,,,,,,,,,,,,,,,,,,,,,,,,,,,,,,,,,,,,,,,,,,,,,,,,,,,,,,,,,,,,,,,,,,,,,,,,,,,,,,,,,,,,,,,,,,,,,,,,,,,,,,880.0076270999853,None,1071.7734625362941,9.0,0.0001326176592729934,0,"[0.6960698837404935, 0.4270303964376462, 0.7023948169649046, 0.4473406573358785]","[2012.950691167382, 6849.3492244853705, 848.1729993618542, 4858.332326531197]",None,"[18.917660741372508, 6.648283391991938, 16.422498541154127, 7.646420842152193]",False,881.0377034998965,883.9102207999676,883.9102207999676,885.1425721999258,None,0,,3.299797869985923,4.329884770093486,None,1,None,1,,,,,,,,,,,,,,luctew,001,fr,0,0,2022-05-12_15h03.34.149,Cluster,2022.1.1,35.364680596551814,
,,,,6,0,6,0,6,0,6,0,,,frequency,,,,,,,,,,,,,,,,,,,,,,,,,,,,,,,,,,,,,,,,,,,,,,,,,,,,,,,,,,,,,,,,,,,,,,,,,,,,,,,,,,,,,,,,,,,,,,,,,,,,,,,,,,,,,,,,,,,885.4073747000657,None,3774.824497352277,0.9448605021024403,8.917946446186646e-05,1,"[0.5167040195263095, 0.41353721917651104, 0.5956385121351324, 0.6348962880157644]","[5992.160378092335, 5338.407999733792, 4755.980843872968, 4237.097237306436]",Tone,"[7.527024518793752, 7.7998269890940355, 7.368981177538528, 7.072038840080568]",False,886.3978372998536,888.9533956998494,888.9533956998494,890.1805990999565,['space'],1,[0.2968313000164926],3.176175939850509,4.208248140057549,None,1,None,1,,,,,,,,,,,,,,luctew,001,fr,0,0,2022-05-12_15h03.34.149,Cluster,2022.1.1,35.364680596551814,
,,,,6,0,6,0,7,0,7,0,,,none,,,,,,,,,,,,,,,,,,,,,,,,,,,,,,,,,,,,,,,,,,,,,,,,,,,,,,,,,,,,,,,,,,,,,,,,,,,,,,,,,,,,,,,,,,,,,,,,,,,,,,,,,,,,,,,,,,,890.6713554000016,None,693.8896356191482,12.434686992489542,0.00019069402358692138,1,"[0.5304585945471939, 0.5292247064020614, 0.4769486788788373, 0.5441571456582436]","[3664.0433671759006, 278.8061050741652, 338.8293383954607, 7652.8702444024775]",None,"[7.0, 18.0, 17.479758446912495, 6.0]",False,891.669499399839,894.2352797000203,894.2352797000203,895.4577335000504,['space'],1,[0.29659259994514287],3.1051859399303794,4.130153639940545,None,1,None,1,,,,,,,,,,,,,,luctew,001,fr,0,0,2022-05-12_15h03.34.149,Cluster,2022.1.1,35.364680596551814,
,,,,6,0,6,0,8,0,8,0,,,time,,,,,,,,,,,,,,,,,,,,,,,,,,,,,,,,,,,,,,,,,,,,,,,,,,,,,,,,,,,,,,,,,,,,,,,,,,,,,,,,,,,,,,,,,,,,,,,,,,,,,,,,,,,,,,,,,,,895.8650121998508,None,406.12619817811805,-2.0,6.056065239717021e-05,1,"[0.493375197449188, 0.493375197449188, 0.493375197449188, 0.493375197449188]","[1680.3164982702347, 184.77699812349783, 3816.4566270324426, 4863.878356042153]",None,"[20.567105356731734, 8.0, 6.94486050210244, 7.646420842152193]",False,896.886877699988,899.3901185998693,899.3901185998693,900.6003771000542,['space'],1,[0.6174484002403915],3.021214670035988,4.042371670017019,None,1,None,1,,,,,,,,,,,,,,luctew,001,fr,0,0,2022-05-12_15h03.34.149,Cluster,2022.1.1,35.364680596551814,
,,,,6,0,6,0,9,0,9,0,,,time,,,,,,,,,,,,,,,,,,,,,,,,,,,,,,,,,,,,,,,,,,,,,,,,,,,,,,,,,,,,,,,,,,,,,,,,,,,,,,,,,,,,,,,,,,,,,,,,,,,,,,,,,,,,,,,,,,,900.9735870999284,None,,,,,"[0.6643450788846489, 0.6643450788846489, 0.6643450788846489, 0.6643450788846489]","[445.0219795790405, 382.14924057766376, 177.334594055087, 4859.061139402024]",None,"[16.220717981261956, 16.351771473087013, 6.695539679502874, 7.646420842152193]",True,901.9774448999669,904.9943113999907,904.9943113999907,906.2224975000136,None,1,,3.678070340072736,4.685840839985758,None,1,None,1,0,,,,,,,,,,,,,luctew,001,fr,0,0,2022-05-12_15h03.34.149,Cluster,2022.1.1,35.364680596551814,
,,,,6,0,6,0,10,0,10,0,,,both,,,,,,,,,,,,,,,,,,,,,,,,,,,,,,,,,,,,,,,,,,,,,,,,,,,,,,,,,,,,,,,,,,,,,,,,,,,,,,,,,,,,,,,,,,,,,,,,,,,,,,,,,,,,,,,,,,,906.719583200058,None,646.7575514545789,12.816814774548485,0.0002173474808559628,1,"[0.5647407638783211, 0.5647407638783211, 0.5647407638783211, 0.5647407638783211]","[1629.7269065121811, 1293.5151029091578, 1026.6636175473755, 814.8634532560906]",Major_3rd,"[20.567105356731734, 18.625992675863763, 16.0, 17.07425568908256]",False,907.7175993998535,910.4338417998515,910.4338417998515,911.6356654998381,['space'],1,[0.5641413000412285],3.2849260398652405,4.299974839901552,None,1,None,1,,,,,,,,,,,,,,luctew,001,fr,0,0,2022-05-12_15h03.34.149,Cluster,2022.1.1,35.364680596551814,
,,,,6,0,6,0,11,0,11,0,,,none,,,,,,,,,,,,,,,,,,,,,,,,,,,,,,,,,,,,,,,,,,,,,,,,,,,,,,,,,,,,,,,,,,,,,,,,,,,,,,,,,,,,,,,,,,,,,,,,,,,,,,,,,,,,,,,,,,,912.0801029000431,None,8000.0,-4.0,0.00011454338263838867,1,"[0.5814168393895067, 0.4425566895792155, 0.417424126750826, 0.623767078560963]","[1511.0497233196602, 650.1852084820158, 227.75861704495043, 223.6522935140332]",None,"[20.223609845119196, 18.816814774548483, 14.0, 14.0]",False,913.1141250999644,915.5749808999244,915.5749808999244,916.7902660998516,['space'],1,[0.13490390009246767],3.1124540695454925,4.135609869612381,None,1,None,1,,,,,,,,,,,,,,luctew,001,fr,0,0,2022-05-12_15h03.34.149,Cluster,2022.1.1,35.364680596551814,
,,,,6,0,6,0,12,0,12,0,,,time,,,,,,,,,,,,,,,,,,,,,,,,,,,,,,,,,,,,,,,,,,,,,,,,,,,,,,,,,,,,,,,,,,,,,,,,,,,,,,,,,,,,,,,,,,,,,,,,,,,,,,,,,,,,,,,,,,,917.2963845999911,None,6023.021382758467,1.5270245187937523,0.0001394340373464456,1,"[0.49999302029012993, 0.49999302029012993, 0.49999302029012993, 0.49999302029012993]","[5066.796551426049, 1830.6014689362319, 6448.675687188091, 141.91556906165937]",None,"[7.646420842152193, 20.0, 7.1307020185210135, 8.0]",False,918.3092707998585,920.8386303998996,920.8386303998996,922.0537443999201,['space'],1,[0.4647344001568854],3.0165899398270994,4.033136939862743,None,1,None,1,,,,,,,,,,,,,,luctew,001,fr,0,0,2022-05-12_15h03.34.149,Cluster,2022.1.1,35.364680596551814,
