tTrials.thisRepN,tTrials.thisTrialN,tTrials.thisN,tTrials.thisIndex,blocks.thisRepN,blocks.thisTrialN,blocks.thisN,blocks.thisIndex,trials.thisRepN,trials.thisTrialN,trials.thisN,trials.thisIndex,tStart_text.started,tStart_text.stopped,Prediction,practice_Frequency,practice_Level,practice_Psychopy_Level,practice_isCatchTrial,Practice_trial_detection,practice_Cue_Delays,practice_Cue_Frequencies,practice_Interval,practice_Cue_Intensities,tCue_visual_cue.started,tCue_visual_cue.stopped,tProbe_visual_cue.started,tProbe_visual_cue.stopped,tFeedback.keys,tFeedback.corr,tFeedback.started,tFeedback.stopped,tToo_late.keys,tToo_late.corr,tToo_early.keys,tToo_early.corr,more_instructions.started,more_instructions.stopped,readyy.keys,readyy.rt,readyy.started,readyy.stopped,txt_rhythm.started,txt_rhythm.stopped,sound_1.started,sound_1.stopped,sound_2.started,sound_2.stopped,sound_3.started,sound_3.stopped,sound_4.started,sound_4.stopped,cross.started,cross.stopped,sound_5.started,sound_5.stopped,circle.started,circle.stopped,rhythm_ready.keys,rhythm_ready.rt,rhythm_ready.started,rhythm_ready.stopped,rhytm_ready_txt.started,rhytm_ready_txt.stopped,txt_freq.started,txt_freq.stopped,sound_6.started,sound_6.stopped,sound_7.started,sound_7.stopped,sound_8.started,sound_8.stopped,sound_9.started,sound_9.stopped,cross_2.started,cross_2.stopped,sound_10.started,sound_10.stopped,circle_2.started,circle_2.stopped,freq_ready.keys,freq_ready.rt,freq_ready.started,freq_ready.stopped,freq_ready_txt.started,freq_ready_txt.stopped,txt_freq_2.started,txt_freq_2.stopped,sound_11.started,sound_11.stopped,sound_12.started,sound_12.stopped,sound_13.started,sound_13.stopped,sound_14.started,sound_14.stopped,cross_3.started,cross_3.stopped,sound_15.started,sound_15.stopped,circle_3.started,circle_3.stopped,freq_ready_2.keys,freq_ready_2.rt,freq_ready_2.started,freq_ready_2.stopped,freq_ready_txt_2.started,freq_ready_txt_2.stopped,txt_freq_3.started,txt_freq_3.stopped,sound_16.started,sound_16.stopped,sound_17.started,sound_17.stopped,sound_18.started,sound_18.stopped,sound_19.started,sound_19.stopped,cross_4.started,cross_4.stopped,sound_20.started,sound_20.stopped,circle_4.started,circle_4.stopped,freq_ready_txt_3.started,freq_ready_txt_3.stopped,tStart_text_2.started,tStart_text_2.stopped,this_trial_is.started,this_trial_is.stopped,API_start,API_stop,API_duration,Frequency,Level,Psychopy_Level,Real trial detection,Cue Delays,Cue Frequencies,Interval,Cue Intensities,Catch trial,cue_visual_cue.started,cue_visual_cue.stopped,probe_visual_cue.started,probe_visual_cue.stopped,feedback.keys,feedback.corr,feedback.started,feedback.stopped,answer_too_early.keys,answer_too_early.corr,answer_too_early.rt,feedback.rt,Catch trial answer,Audiogram_frequency,Audiogram_none,Audiogram_time,Audiogram_both,goodbye_text.started,goodbye_text.stopped,key_resp.keys,key_resp.rt,key_resp.started,key_resp.stopped,participant,session,Language (english or french),Skip training? (1 for yes),Resume previous experiment,date,expName,psychopyVersion,frameRate,
0,0,0,0,,,,,,,,,None,None,both,1000,30,0.0013930605843148849,False,0,"[0.6931902723164465, 0.6931902723164465, 0.6931902723164465, 0.6931902723164465]","[198.42513149602496, 297.3017787506803, 445.4493590701697, 667.4199270850172]",Perfect_5th,"[30, 30, 30, 30]",None,None,None,None,None,0,None,None,None,1,None,1,,,,,,,,,,,,,,,,,,,,,,,,,,,,,,,,,,,,,,,,,,,,,,,,,,,,,,,,,,,,,,,,,,,,,,,,,,,,,,,,,,,,,,,,,,,,,,,,,,,,,,,,,,,,,,,,,,,,,,,,,,,,,,,,,,tyrfqt,001,fr,1,0,2022-04-22_11h35.19.106,Cluster,2022.1.1,35.47496905696009,
1,0,1,0,,,,,,,,,,,both,2500,30,0.002716251657462167,False,0,"[0.6969321698568834, 0.6969321698568834, 0.6969321698568834, 0.6969321698568834]","[6299.605249474367, 5000.000000000001, 3968.502629920499, 3149.802624737183]",Major_3rd,"[30, 30, 30, 30]",None,None,None,None,None,0,None,None,None,1,None,1,,,,,,,,,,,,,,,,,,,,,,,,,,,,,,,,,,,,,,,,,,,,,,,,,,,,,,,,,,,,,,,,,,,,,,,,,,,,,,,,,,,,,,,,,,,,,,,,,,,,,,,,,,,,,,,,,,,,,,,,,,,,,,,,,,tyrfqt,001,fr,1,0,2022-04-22_11h35.19.106,Cluster,2022.1.1,35.47496905696009,
2,0,2,0,,,,,,,,,,,time,6000,30,0.003664122665694519,True,0,"[0.4546052119421727, 0.4546052119421727, 0.4546052119421727, 0.4546052119421727]","[560.6341520975153, 238.17817861461057, 253.4986736124097, 435.60591804047493]",None,"[30, 30, 30, 30]",None,None,None,None,None,1,None,None,None,1,None,1,,,,,,,,,,,,,,,,,,,,,,,,,,,,,,,,,,,,,,,,,,,,,,,,,,,,,,,,,,,,,,,,,,,,,,,,,,,,,,,,,,,,,,,,,,,,,,,,,,,,,,,,,,,,,,,,,,,,,,,,,,,,,,,,,,tyrfqt,001,fr,1,0,2022-04-22_11h35.19.106,Cluster,2022.1.1,35.47496905696009,
3,0,3,0,,,,,,,,,,,frequency,440,30,0.0023562289915021436,False,1,"[0.7087408262996191, 0.46983804723094896, 0.6284289216887002, 0.43919866591508855]","[174.614115716502, 220.00000000000006, 277.18263097687213, 349.2282314330039]",Major_3rd,"[30, 30, 30, 30]",None,None,None,None,None,0,None,None,None,1,None,1,,,,,,,,,,,,,,,,,,,,,,,,,,,,,,,,,,,,,,,,,,,,,,,,,,,,,,,,,,,,,,,,,,,,,,,,,,,,,,,,,,,,,,,,,,,,,,,,,,,,,,,,,,,,,,,,,,,,,,,,,,,,,,,,,,tyrfqt,001,fr,1,0,2022-04-22_11h35.19.106,Cluster,2022.1.1,35.47496905696009,
4,0,4,0,,,,,,,,,,,frequency,250,30,0.005296268625886445,True,0,"[0.4613002870132766, 0.5696561952976724, 0.7011008686890621, 0.6237583572995706]","[1259.9210498948732, 840.8964152537146, 561.2310241546866, 374.5767692191704]",Perfect_5th,"[30, 30, 30, 30]",None,None,None,None,None,1,None,None,None,1,None,1,,,,,,,,,,,,,,,,,,,,,,,,,,,,,,,,,,,,,,,,,,,,,,,,,,,,,,,,,,,,,,,,,,,,,,,,,,,,,,,,,,,,,,,,,,,,,,,,,,,,,,,,,,,,,,,,,,,,,,,,,,,,,,,,,,tyrfqt,001,fr,1,0,2022-04-22_11h35.19.106,Cluster,2022.1.1,35.47496905696009,
,,,,,,,,,,,,,,,,,,,,,,,,,,,,,,,,,,,,24.800669600022957,None,space,1.4584810000378639,24.800669600022957,None,,,,,,,,,,,,,,,,,,,,,,,,,,,,,,,,,,,,,,,,,,,,,,,,,,,,,,,,,,,,,,,,,,,,,,,,,,,,,,,,,,,,,,,,,,,,,,,,,,,,,,,,,,,,,,,,,,,,,,,,,,,,tyrfqt,001,fr,1,0,2022-04-22_11h35.19.106,Cluster,2022.1.1,35.47496905696009,
,,,,,,,,,,,,,,,,,,,,,,,,,,,,,,,,,,,,,,,,,,26.30957469996065,27.334343699971214,27.76456921992358,None,28.264544120081702,28.486730499891564,28.766608020081186,28.97969840001315,29.264382120012307,29.482946400064975,27.66862850007601,29.482946400064975,29.767316520004535,29.98092280002311,29.482946400064975,30.302016200032085,space,1.0852414001710713,30.469260799931362,None,,,,,,,,,,,,,,,,,,,,,,,,,,,,,,,,,,,,,,,,,,,,,,,,,,,,,,,,,,,,,,,,,,,,,,,,,,,,,,,,,,,,,,,,,,,,,,,,,,,,,,,,tyrfqt,001,fr,1,0,2022-04-22_11h35.19.106,Cluster,2022.1.1,35.47496905696009,
,,,,,,,,,,,,,,,,,,,,,,,,,,,,,,,,,,,,,,,,,,,,,,,,,,,,,,,,,,,,,,30.469260799931362,None,31.6140497000888,32.64027229999192,33.06964701998513,33.28053109999746,33.37053202001844,33.58372549992055,34.07205012000632,None,34.47009262002539,34.68596459995024,32.97441000002436,34.77921970002353,35.06906792011578,35.28625119989738,34.77921970002353,35.61025579995476,space,0.9757135000545532,35.77909910003655,None,,,,,,,,,,,,,,,,,,,,,,,,,,,,,,,,,,,,,,,,,,,,,,,,,,,,,,,,,,,,,,,,,,,,,,,,,,,,,,,,,,tyrfqt,001,fr,1,0,2022-04-22_11h35.19.106,Cluster,2022.1.1,35.47496905696009,
,,,,,,,,,,,,,,,,,,,,,,,,,,,,,,,,,,,,,,,,,,,,,,,,,,,,,,,,,,,,,,,,,,,,,,,,,,,,,,,,,,,,35.77909910003655,None,36.82200899999589,37.84921650006436,38.27298772011418,38.4989126001019,38.77522731993813,38.98850929993205,39.276832219935024,39.4911209999118,39.773102520057,39.98924640007317,38.177094999933615,39.98924640007317,40.27885101994034,None,39.98924640007317,40.81792189995758,space,0.9084233001340181,40.983003000030294,None,,,,,,,,,,,,,,,,,,,,,,,,,,,,,,,,,,,,,,,,,,,,,,,,,,,,,,,,,,,,tyrfqt,001,fr,1,0,2022-04-22_11h35.19.106,Cluster,2022.1.1,35.47496905696009,
,,,,0,0,0,0,0,0,0,0,,,both,,,,,,,,,,,,,,,,,,,,,,,,,,,,,,,,,,,,,,,,,,,,,,,,,,,,,,,,,,,,,,,,,,,,,,,,,,,,,,,,,,,,,,,,,,,,40.983003000030294,None,41.95573309995234,42.98519710008986,43.413874419895,43.62895380007103,43.72006722006481,None,44.41612651993055,44.63713019993156,44.81398101991508,45.02910970011726,43.317068099975586,45.11951080011204,45.416484120092356,45.63269150000997,45.11951080011204,45.95330339996144,46.12042500008829,None,None,None,47.16303599998355,None,1650620148.8157835,1650620149.8142304,0.9984469413757324,329.87697769322364,8.0,0.0002380236949658044,0,"[0.5138811247194084, 0.5138811247194084, 0.5138811247194084, 0.5138811247194084]","[130.9117653525784, 164.93848884661188, 207.80947403569704, 261.82353070515677]",Major_3rd,"[1.922254749025186, 5.989536451728783, 9.0, 8.326813114499995]",False,49.146233200095594,51.73065120005049,51.73065120005049,52.96331020002253,None,0,3.0675899600610137,4.101397159975022,['space'],0,[-6.191758200060576],,,,,,,,,,,,,tyrfqt,001,fr,1,0,2022-04-22_11h35.19.106,Cluster,2022.1.1,35.47496905696009,
,,,,0,0,0,0,1,0,1,0,,,frequency,,,,,,,,,,,,,,,,,,,,,,,,,,,,,,,,,,,,,,,,,,,,,,,,,,,,,,,,,,,,,,,,,,,,,,,,,,,,,,,,,,,,,,,,,,,,,,,,,,,,,,,,,,,,,,,,,,53.26975729991682,None,1650620154.9556587,1650620155.9262438,0.9705851078033447,329.87697769322364,8.0,0.0002380236949658044,1,"[0.4604100457940005, 0.7720375831703754, 0.595510817955133, 0.684570160119615]","[207.80947403569695, 233.25824788420186, 261.8235307051567, 293.8869765709022]",Tone,"[9.0, 9.192667839365058, 8.326813114499995, 7.805538975869702]",False,55.258261899929494,58.103586399927735,58.103586399927735,None,['space'],1,3.5340513403061777,None,None,1,,[0.28726729983463883],,,,,,,,,,,,tyrfqt,001,fr,1,0,2022-04-22_11h35.19.106,Cluster,2022.1.1,35.47496905696009,
,,,,0,0,0,0,2,0,2,0,,,none,,,,,,,,,,,,,,,,,,,,,,,,,,,,,,,,,,,,,,,,,,,,,,,,,,,,,,,,,,,,,,,,,,,,,,,,,,,,,,,,,,,,,,,,,,,,,,,,,,,,,,,,,,,,,,,,,,59.108770800055936,None,1650620160.7939444,1650620161.8455753,1.051630973815918,329.87697769322364,8.0,0.0002380236949658044,1,"[0.5564055779768436, 0.5526883971390139, 0.5108648904484268, 0.6854786607906587]","[1129.3227454590974, 4511.535315386866, 959.3668382847527, 188.33248361309148]",None,"[4.902815181024003, -1.825371943492379, 3.0, 8.2776971649791]",False,61.177563100121915,63.837905700085685,63.837905700085685,None,['space'],1,3.3239921000786126,None,None,1,,[0.3882689999882132],,,,,,,,,,,,tyrfqt,001,fr,1,0,2022-04-22_11h35.19.106,Cluster,2022.1.1,35.47496905696009,
,,,,0,0,0,0,3,0,3,0,,,both,,,,,,,,,,,,,,,,,,,,,,,,,,,,,,,,,,,,,,,,,,,,,,,,,,,,,,,,,,,,,,,,,,,,,,,,,,,,,,,,,,,,,,,,,,,,,,,,,,,,,,,,,,,,,,,,,,64.9169006999582,None,,,,467.8765244620072,6.778057821337688,0.0001594915569886882,1,"[0.5834503626822491, 0.5834503626822491, 0.5834503626822491, 0.5834503626822491]","[1178.9749638426729, 935.7530489240145, 742.7076871222152, 589.4874819213364]",Major_3rd,"[5.0, 2.8793151476970755, 4.013998995952191, 8.0]",False,65.92548909992911,68.71310709998943,68.71310709998943,None,['space'],1,3.3508846601471305,None,None,1,,[0.38630009978078306],,,,,,,,,,,,tyrfqt,001,fr,1,0,2022-04-22_11h35.19.106,Cluster,2022.1.1,35.47496905696009,
,,,,0,0,0,0,4,0,4,0,,,both,,,,,,,,,,,,,,,,,,,,,,,,,,,,,,,,,,,,,,,,,,,,,,,,,,,,,,,,,,,,,,,,,,,,,,,,,,,,,,,,,,,,,,,,,,,,,,,,,,,,,,,,,,,,,,,,,,69.68629670003429,None,,,,,,,,"[0.5566378368418684, 0.5566378368418684, 0.5566378368418684, 0.5566378368418684]","[2817.9983790582082, 3550.4554763450683, 4473.29359136168, 5635.996758116416]",Major_3rd,"[-0.1909083371422149, -1.0852869259872637, -1.825371943492379, -1.099175111788238]",True,70.69897049991414,73.3846130000893,73.3846130000893,None,['space'],0,3.246719660004601,None,None,1,,[0.5500179000664502],0,,,,,,,,,,,tyrfqt,001,fr,1,0,2022-04-22_11h35.19.106,Cluster,2022.1.1,35.47496905696009,
,,,,0,0,0,0,5,0,5,0,,,time,,,,,,,,,,,,,,,,,,,,,,,,,,,,,,,,,,,,,,,,,,,,,,,,,,,,,,,,,,,,,,,,,,,,,,,,,,,,,,,,,,,,,,,,,,,,,,,,,,,,,,,,,,,,,,,,,,74.52833770005964,None,1650620176.2102978,1650620177.2027268,0.9924290180206299,329.87697769322364,8.0,0.0002380236949658044,1,"[0.6081959056096888, 0.6081959056096888, 0.6081959056096888, 0.6081959056096888]","[6707.078258165876, 7960.929413135279, 368.66665194332467, 749.3178545182213]",None,"[-1.090804645452339, -2.619118340294624, 7.693636570531561, 4.013998995952191]",False,76.53452429990284,79.38935970002785,79.38935970002785,None,['space'],1,3.447918260237202,None,None,1,,[0.1897689001634717],,,,,,,,,,,,tyrfqt,001,fr,1,0,2022-04-22_11h35.19.106,Cluster,2022.1.1,35.47496905696009,
,,,,0,0,0,0,6,0,6,0,,,both,,,,,,,,,,,,,,,,,,,,,,,,,,,,,,,,,,,,,,,,,,,,,,,,,,,,,,,,,,,,,,,,,,,,,,,,,,,,,,,,,,,,,,,,,,,,,,,,,,,,,,,,,,,,,,,,,,80.19727659993805,None,1650620181.8833127,1650620182.9567606,1.0734479427337646,164.93848884661182,5.0,0.0006991046927313053,1,"[0.7964508893904263, 0.7964508893904263, 0.7964508893904263, 0.7964508893904263]","[261.82353070515677, 233.25824788420192, 207.809474035697, 185.13719403582058]",Tone,"[8.326813114499995, 9.192667839365058, 9.0, 8.0]",False,82.28939409996383,85.69765400001779,85.69765400001779,None,['space'],1,4.206254420336336,None,None,1,,[0.27326989988796413],,,,,,,,,,,,tyrfqt,001,fr,1,0,2022-04-22_11h35.19.106,Cluster,2022.1.1,35.47496905696009,
,,,,0,0,0,0,7,0,7,0,,,both,,,,,,,,,,,,,,,,,,,,,,,,,,,,,,,,,,,,,,,,,,,,,,,,,,,,,,,,,,,,,,,,,,,,,,,,,,,,,,,,,,,,,,,,,,,,,,,,,,,,,,,,,,,,,,,,,,86.80253700003959,None,,,,2204.6956550341433,-1.3124095463239152,6.822173686035765e-05,1,"[0.6102917690462257, 0.6102917690462257, 0.6102917690462257, 0.6102917690462257]","[3499.7362020709184, 3117.9104962543206, 2777.742464389283, 2474.6872008483992]",Tone,"[-1.0852869259872637, -0.41565361304880266, -0.1909083371422149, 0.12274927998099194]",False,87.8234361000359,90.69843120011501,90.69843120011501,None,['space'],1,3.4795210601296276,None,None,1,,[0.13602309999987483],,,,,,,,,,,,tyrfqt,001,fr,1,0,2022-04-22_11h35.19.106,Cluster,2022.1.1,35.47496905696009,
,,,,0,0,0,0,8,0,8,0,,,none,,,,,,,,,,,,,,,,,,,,,,,,,,,,,,,,,,,,,,,,,,,,,,,,,,,,,,,,,,,,,,,,,,,,,,,,,,,,,,,,,,,,,,,,,,,,,,,,,,,,,,,,,,,,,,,,,,91.47226139996201,None,,,,,,,,"[0.4089280953656435, 0.5834787829444642, 0.4931470219954748, 0.4337642013206509]","[276.7780634967465, 1145.245619471953, 2123.249091898563, 3755.3639413611154]",None,"[8.0, 4.902815181024003, 1.0, -1.4686279785677971]",True,92.491602800088,95.00234000012279,95.00234000012279,96.20700399996713,None,1,2.943526660092175,3.966592060169205,None,1,,,0,,,,,,,,,,,tyrfqt,001,fr,1,0,2022-04-22_11h35.19.106,Cluster,2022.1.1,35.47496905696009,
,,,,0,0,0,0,9,0,9,0,,,frequency,,,,,,,,,,,,,,,,,,,,,,,,,,,,,,,,,,,,,,,,,,,,,,,,,,,,,,,,,,,,,,,,,,,,,,,,,,,,,,,,,,,,,,,,,,,,,,,,,,,,,,,,,,,,,,,,,,96.46900229994208,None,,,,856.0747235531243,0.6695217937040217,4.316396846517386e-05,0,"[0.760451453671003, 0.5333313842427793, 0.5646747618378605, 0.5138048453654983]","[539.2932822437577, 605.3362422268132, 679.4669583658075, 762.6758738458237]",Tone,"[8.89347349739519, 7.334255130632958, 6.0, 4.0]",False,97.48734329990111,100.37023989995942,100.37023989995942,101.57800239999779,None,0,3.3860538599547,4.411245360039175,None,1,,,,,,,,,,,,,,tyrfqt,001,fr,1,0,2022-04-22_11h35.19.106,Cluster,2022.1.1,35.47496905696009,
,,,,0,0,0,0,10,0,10,0,,,frequency,,,,,,,,,,,,,,,,,,,,,,,,,,,,,,,,,,,,,,,,,,,,,,,,,,,,,,,,,,,,,,,,,,,,,,,,,,,,,,,,,,,,,,,,,,,,,,,,,,,,,,,,,,,,,,,,,,101.91355850012042,None,1650620203.6007273,1650620204.7256842,1.1249568462371826,203.0630990890589,9.0,0.0007312041673968893,1,"[0.40655436377659115, 0.7902242116857792, 0.5432698556351123, 0.5614411745893857]","[127.92173649959686, 143.58729437462938, 161.1712885549474, 180.90865468004728]",Tone,"[1.0, 3.2164321956632382, 5.989536451728783, 7.250110335393013]",False,104.10857699997723,106.88155809999444,106.88155809999444,None,['space'],1,3.3445361002814025,None,None,1,,[0.30167809990234673],,,,,,,,,,,,tyrfqt,001,fr,1,0,2022-04-22_11h35.19.106,Cluster,2022.1.1,35.47496905696009,
,,,,0,0,0,0,11,0,11,0,,,frequency,,,,,,,,,,,,,,,,,,,,,,,,,,,,,,,,,,,,,,,,,,,,,,,,,,,,,,,,,,,,,,,,,,,,,,,,,,,,,,,,,,,,,,,,,,,,,,,,,,,,,,,,,,,,,,,,,,107.76172140007839,None,,,,1044.851148200332,1.8497297524169485,5.682875804174897e-05,1,"[0.7081049563854633, 0.6043667994562567, 0.6323014687403044, 0.6306633645382729]","[414.6494529508472, 522.4255741001662, 658.2149778122132, 829.2989059016942]",Major_3rd,"[8.211586807684622, 9.0, 6.218559537063877, 3.2260249263326117]",False,108.76652080006897,111.74997220002115,111.74997220002115,None,['space'],1,3.6027852601837367,None,None,1,,[0.4131076999474317],,,,,,,,,,,,tyrfqt,001,fr,1,0,2022-04-22_11h35.19.106,Cluster,2022.1.1,35.47496905696009,
,,,,0,0,0,0,12,0,12,0,,,none,,,,,,,,,,,,,,,,,,,,,,,,,,,,,,,,,,,,,,,,,,,,,,,,,,,,,,,,,,,,,,,,,,,,,,,,,,,,,,,,,,,,,,,,,,,,,,,,,,,,,,,,,,,,,,,,,,112.80970910005271,None,,,,,,,,"[0.7420236620080418, 0.6394986540375814, 0.5531810129014065, 0.69690509358182]","[138.17426006430475, 1499.3367003927863, 788.8939515339167, 377.4164031329069]",None,"[2.0, 5.809690816193903, 3.2260249263326117, 7.693636570531561]",True,113.81324260006659,116.78694880008698,116.78694880008698,None,['space'],0,3.6737342602573335,None,None,1,,[0.2596885999664664],0,,,,,,,,,,,tyrfqt,001,fr,1,0,2022-04-22_11h35.19.106,Cluster,2022.1.1,35.47496905696009,
,,,,0,0,0,0,13,0,13,0,,,frequency,,,,,,,,,,,,,,,,,,,,,,,,,,,,,,,,,,,,,,,,,,,,,,,,,,,,,,,,,,,,,,,,,,,,,,,,,,,,,,,,,,,,,,,,,,,,,,,,,,,,,,,,,,,,,,,,,,117.7632542999927,None,1650620219.4504364,1650620220.6583745,1.2079381942749023,125.0,0.0,0.000722719885372964,1,"[0.5827269703304815, 0.7903263910597997, 0.42390519296378515, 0.6711032433737836]","[198.42513149602502, 176.77669529663694, 157.49013123685918, 140.30775603867164]",Tone,"[8.973732267488668, 7.250110335393013, 5.0, 3.0]",False,119.99076239997521,122.83131800009869,122.83131800009869,None,['space'],1,3.490259420359507,None,None,1,,[0.3823500999715179],,,,,,,,,,,,tyrfqt,001,fr,1,0,2022-04-22_11h35.19.106,Cluster,2022.1.1,35.47496905696009,
,,,,0,0,0,0,14,0,14,0,,,time,,,,,,,,,,,,,,,,,,,,,,,,,,,,,,,,,,,,,,,,,,,,,,,,,,,,,,,,,,,,,,,,,,,,,,,,,,,,,,,,,,,,,,,,,,,,,,,,,,,,,,,,,,,,,,,,,,123.87876180000603,None,,,,361.7285101317647,5.141178205767744,0.00015632368566412903,1,"[0.6160197087951059, 0.6160197087951059, 0.6160197087951059, 0.6160197087951059]","[2397.8101654306815, 214.8592813678902, 150.74909267193598, 915.82219335944]",None,"[0.12274927998099194, 9.25797861941169, 4.0, 2.8793151476970755]",False,124.89347300003283,127.7600690999534,127.7600690999534,None,['space'],1,3.490794860292226,None,None,1,,[0.4139034999534488],,,,,,,,,,,,tyrfqt,001,fr,1,0,2022-04-22_11h35.19.106,Cluster,2022.1.1,35.47496905696009,
,,,,0,0,0,0,15,0,15,0,,,none,,,,,,,,,,,,,,,,,,,,,,,,,,,,,,,,,,,,,,,,,,,,,,,,,,,,,,,,,,,,,,,,,,,,,,,,,,,,,,,,,,,,,,,,,,,,,,,,,,,,,,,,,,,,,,,,,,128.82261170004494,None,,,,765.462007754518,1.7911601645047852,4.9085088350158713e-05,0,"[0.4092217022728364, 0.6407118522618659, 0.5786582960703824, 0.5071655932239624]","[189.89906215904043, 618.1188831772914, 5434.187913527345, 2125.070533442971]",None,"[8.2776971649791, 7.334255130632958, -1.3539693998841358, 1.0]",False,129.81925170007162,132.45935910008848,132.45935910008848,133.66199310007505,None,0,3.1611404600553215,4.173157960176468,None,1,,,,,,,,,,,,,,tyrfqt,001,fr,1,0,2022-04-22_11h35.19.106,Cluster,2022.1.1,35.47496905696009,
,,,,0,0,0,0,16,0,16,0,,,frequency,,,,,,,,,,,,,,,,,,,,,,,,,,,,,,,,,,,,,,,,,,,,,,,,,,,,,,,,,,,,,,,,,,,,,,,,,,,,,,,,,,,,,,,,,,,,,,,,,,,,,,,,,,,,,,,,,,134.00278689991683,None,,,,2467.027851610015,-2.207013510971646,6.605535194494182e-05,1,"[0.7733884343589494, 0.596115151438454, 0.776061362567513, 0.534236878422009]","[979.0406517201466, 1233.5139258050078, 1554.130160460192, 1958.0813034402927]",Major_3rd,"[3.314424444196705, 5.652799643408654, 5.809690816193903, 2.0]",False,135.00179799995385,138.18345679994673,138.18345679994673,None,['space'],1,3.7032415601424873,None,None,1,,[0.3979231999255717],,,,,,,,,,,,tyrfqt,001,fr,1,0,2022-04-22_11h35.19.106,Cluster,2022.1.1,35.47496905696009,
,,,,0,0,0,0,17,0,17,0,,,time,,,,,,,,,,,,,,,,,,,,,,,,,,,,,,,,,,,,,,,,,,,,,,,,,,,,,,,,,,,,,,,,,,,,,,,,,,,,,,,,,,,,,,,,,,,,,,,,,,,,,,,,,,,,,,,,,,139.14052499993704,None,,,,,,,,"[0.7780106170854701, 0.7780106170854701, 0.7780106170854701, 0.7780106170854701]","[746.1520284097583, 471.575049401245, 5904.540894922413, 610.6791167422286]",None,"[4.013998995952191, 9.088737075222543, -1.0, 7.334255130632958]",True,140.1575748999603,143.52866449998692,143.52866449998692,144.753895400092,None,1,4.135186360217631,5.161017460282892,None,1,,,0,,,,,,,,,,,tyrfqt,001,fr,1,0,2022-04-22_11h35.19.106,Cluster,2022.1.1,35.47496905696009,
,,,,0,0,0,0,18,0,18,0,,,both,,,,,,,,,,,,,,,,,,,,,,,,,,,,,,,,,,,,,,,,,,,,,,,,,,,,,,,,,,,,,,,,,,,,,,,,,,,,,,,,,,,,,,,,,,,,,,,,,,,,,,,,,,,,,,,,,,145.33159950003028,None,1650620247.0174468,1650620248.145567,1.1281201839447021,4594.793419988137,0.0,0.00012486547057085194,1,"[0.796979597677353, 0.796979597677353, 0.796979597677353, 0.796979597677353]","[7293.779908465733, 6498.019170849882, 5789.07694976151, 5157.481233758314]",Tone,"[-1.9224556041955818, -1.090804645452339, -1.099175111788238, -1.3539693998841358]",False,147.4788953999523,150.90277289994992,150.90277289994992,None,['space'],1,4.226907060248777,None,None,1,,[0.24856829992495477],,,,,,,,,,,,tyrfqt,001,fr,1,0,2022-04-22_11h35.19.106,Cluster,2022.1.1,35.47496905696009,
,,,,0,0,0,0,19,0,19,0,,,frequency,,,,,,,,,,,,,,,,,,,,,,,,,,,,,,,,,,,,,,,,,,,,,,,,,,,,,,,,,,,,,,,,,,,,,,,,,,,,,,,,,,,,,,,,,,,,,,,,,,,,,,,,,,,,,,,,,,151.96857629995793,None,1650620253.6302652,1650620255.2648797,1.6346144676208496,500.0,0.0,7.144469792555515e-05,0,"[0.4719259007318001, 0.41335091966078413, 0.6078188993104314, 0.6426353439741121]","[1259.9210498948732, 1000.0000000000001, 793.7005259840998, 629.9605249474366]",Major_3rd,"[5.652799643408654, 3.314424444196705, 3.2260249263326117, 7.0]",False,154.59744010004215,157.1329340999946,157.1329340999946,158.3400220000185,None,0,3.182182620279491,4.195752520347014,['space'],0,[-1.1136645001824945],,,,,,,,,,,,,tyrfqt,001,fr,1,0,2022-04-22_11h35.19.106,Cluster,2022.1.1,35.47496905696009,
,,,,1,0,1,0,0,0,0,0,,,time,,,,,,,,,,,,,,,,,,,,,,,,,,,,,,,,,,,,,,,,,,,,,,,,,,,,,,,,,,,,,,,,,,,,,,,,,,,,,,,,,,,,,,,,,,,,,,,,,,,,,,,,,,,,,,,,,,169.0057206999045,None,1650620270.6930954,1650620271.8530517,1.1599562168121338,203.0630990890589,8.0,0.0006516864001597818,1,"[0.5538063174972905, 0.5538063174972905, 0.5538063174972905, 0.5538063174972905]","[543.9740924348706, 2996.173646243113, 3510.6540406728454, 2620.4757807789415]",None,"[8.89347349739519, -0.41565361304880266, -1.0852869259872637, 0.0]",False,171.18617890006863,173.86396099999547,173.86396099999547,None,['space'],1,3.233443279983476,None,None,1,,[0.4087909997906536],,,,,,,,,,,,tyrfqt,001,fr,1,0,2022-04-22_11h35.19.106,Cluster,2022.1.1,35.47496905696009,
,,,,1,0,1,0,1,0,1,0,,,none,,,,,,,,,,,,,,,,,,,,,,,,,,,,,,,,,,,,,,,,,,,,,,,,,,,,,,,,,,,,,,,,,,,,,,,,,,,,,,,,,,,,,,,,,,,,,,,,,,,,,,,,,,,,,,,,,,174.84720789990388,None,1650620276.534661,1650620277.7005072,1.1658461093902588,189.4645708137998,8.0,0.0007631412880477617,1,"[0.4571089793611351, 0.5574767333153682, 0.4874382348120923, 0.5629352345851268]","[794.807157588275, 190.42865941561226, 989.7802161723691, 1044.71009973806]",None,"[3.2260249263326117, 8.2776971649791, 3.314424444196705, 4.0]",False,177.03245649999008,179.5652036999818,179.5652036999818,None,['space'],1,3.088562880177051,None,None,1,,[0.3512868999969214],,,,,,,,,,,,tyrfqt,001,fr,1,0,2022-04-22_11h35.19.106,Cluster,2022.1.1,35.47496905696009,
,,,,1,0,1,0,2,0,2,0,,,frequency,,,,,,,,,,,,,,,,,,,,,,,,,,,,,,,,,,,,,,,,,,,,,,,,,,,,,,,,,,,,,,,,,,,,,,,,,,,,,,,,,,,,,,,,,,,,,,,,,,,,,,,,,,,,,,,,,,180.52091399999335,None,,,,2095.1329033031097,-1.0,6.855557460638444e-05,1,"[0.5577281853278458, 0.6029021396024001, 0.5510430328581898, 0.789700008085348]","[5279.404094397895, 4190.2658066062195, 3325.816174716544, 2639.7020471989476]",Major_3rd,"[-1.3539693998841358, -1.8708373282903583, -0.7195967390694644, -0.03000906409819315]",False,181.53116089990363,184.2849413000513,184.2849413000513,None,['space'],1,3.5180767602287233,None,None,1,,[0.3737230999395251],,,,,,,,,,,,tyrfqt,001,fr,1,0,2022-04-22_11h35.19.106,Cluster,2022.1.1,35.47496905696009,
,,,,1,0,1,0,3,0,3,0,,,time,,,,,,,,,,,,,,,,,,,,,,,,,,,,,,,,,,,,,,,,,,,,,,,,,,,,,,,,,,,,,,,,,,,,,,,,,,,,,,,,,,,,,,,,,,,,,,,,,,,,,,,,,,,,,,,,,,185.46631869999692,None,,,,234.39524396413728,7.0,0.0004433908158451775,1,"[0.5280672017144563, 0.5280672017144563, 0.5280672017144563, 0.5280672017144563]","[620.5090403678387, 2361.683845678143, 4399.595515200085, 977.3746893776894]",None,"[7.334255130632958, 0.3938950762819644, -1.8708373282903583, 3.314424444196705]",False,186.46850050007924,189.09082260006107,189.09082260006107,None,['space'],1,3.150336960097775,None,None,1,,[0.06318819988518953],,,,,,,,,,,,tyrfqt,001,fr,1,0,2022-04-22_11h35.19.106,Cluster,2022.1.1,35.47496905696009,
,,,,1,0,1,0,4,0,4,0,,,time,,,,,,,,,,,,,,,,,,,,,,,,,,,,,,,,,,,,,,,,,,,,,,,,,,,,,,,,,,,,,,,,,,,,,,,,,,,,,,,,,,,,,,,,,,,,,,,,,,,,,,,,,,,,,,,,,,189.69816539995372,None,1650620291.380083,1650620293.4926372,2.1125540733337402,125.0,-1.0,0.000644124775846567,1,"[0.6760664236780047, 0.6760664236780047, 0.6760664236780047, 0.6760664236780047]","[597.05957326817, 211.11464304149692, 4527.352892175507, 977.4759453922082]",None,"[8.0, 9.25797861941169, -1.825371943492379, 3.314424444196705]",False,192.82571200001985,195.86690609995276,195.86690609995276,None,['space'],1,3.7293804604560137,None,None,1,,[0.35239099990576506],,,,,,,,,,,,tyrfqt,001,fr,1,0,2022-04-22_11h35.19.106,Cluster,2022.1.1,35.47496905696009,
,,,,1,0,1,0,5,0,5,0,,,none,,,,,,,,,,,,,,,,,,,,,,,,,,,,,,,,,,,,,,,,,,,,,,,,,,,,,,,,,,,,,,,,,,,,,,,,,,,,,,,,,,,,,,,,,,,,,,,,,,,,,,,,,,,,,,,,,,196.93979600002058,None,,,,308.4918320966619,5.210719116965301,0.00019224456119311417,1,"[0.6137502845167417, 0.5943581501901085, 0.60402725580989, 0.7897197949656002]","[265.00532326919705, 3608.666423209581, 478.68114284397774, 2255.8565208771734]",None,"[8.326813114499995, -1.4686279785677971, 9.088737075222543, 0.3938950762819644]",False,197.95099689997733,200.80166290001944,200.80166290001944,None,['space'],1,3.644627060042694,None,None,1,,[0.35590539989061654],,,,,,,,,,,,tyrfqt,001,fr,1,0,2022-04-22_11h35.19.106,Cluster,2022.1.1,35.47496905696009,
,,,,1,0,1,0,6,0,6,0,,,frequency,,,,,,,,,,,,,,,,,,,,,,,,,,,,,,,,,,,,,,,,,,,,,,,,,,,,,,,,,,,,,,,,,,,,,,,,,,,,,,,,,,,,,,,,,,,,,,,,,,,,,,,,,,,,,,,,,,201.98240899993107,None,1650620303.660441,1650620305.4957206,1.8352797031402588,4594.793419988137,-1.0,0.0001112864677867834,1,"[0.6167970173190311, 0.7013181493840112, 0.7733050044105235, 0.41087290765053275]","[1823.4449771164332, 2297.396709994069, 2894.538474880755, 3646.8899542328654]",Major_3rd,"[3.0, 0.3938950762819644, -0.1909083371422149, -1.4686279785677971]",False,204.8295603999868,207.94307209993713,207.94307209993713,None,['space'],1,3.551555160433054,None,None,1,,[0.40831829980015755],,,,,,,,,,,,tyrfqt,001,fr,1,0,2022-04-22_11h35.19.106,Cluster,2022.1.1,35.47496905696009,
,,,,1,0,1,0,7,0,7,0,,,none,,,,,,,,,,,,,,,,,,,,,,,,,,,,,,,,,,,,,,,,,,,,,,,,,,,,,,,,,,,,,,,,,,,,,,,,,,,,,,,,,,,,,,,,,,,,,,,,,,,,,,,,,,,,,,,,,,208.82279150001705,None,1650620310.500234,1650620311.7413063,1.241072416305542,125.0,-1.0,0.000644124775846567,0,"[0.48849877732129043, 0.7508347260432844, 0.4518656247282771, 0.6088529091920228]","[769.8798201481153, 192.29797081515014, 1411.1659100268007, 1561.3343904044068]",None,"[4.0, 8.2776971649791, 6.208779135391241, 5.809690816193903]",False,211.12145729991607,213.84939350001514,213.84939350001514,215.08510020002723,None,0,3.3400821802206337,4.370164080290124,None,1,,,,,,,,,,,,,,tyrfqt,001,fr,1,0,2022-04-22_11h35.19.106,Cluster,2022.1.1,35.47496905696009,
,,,,1,0,1,0,8,0,8,0,,,frequency,,,,,,,,,,,,,,,,,,,,,,,,,,,,,,,,,,,,,,,,,,,,,,,,,,,,,,,,,,,,,,,,,,,,,,,,,,,,,,,,,,,,,,,,,,,,,,,,,,,,,,,,,,,,,,,,,,215.49036359996535,None,,,,,,,,"[0.6285743289162394, 0.6757021473542597, 0.5148653721471959, 0.6871515421688843]","[147.20020689484554, 165.2266457427518, 185.46063921569632, 208.17252897481612]",Tone,"[4.0, 6.0, 8.0, 9.0]",True,216.5020204000175,219.3552838000469,219.3552838000469,220.59208939992823,None,1,3.55039725988172,4.582249759929255,None,1,,,0,,,,,,,,,,,tyrfqt,001,fr,1,0,2022-04-22_11h35.19.106,Cluster,2022.1.1,35.47496905696009,
,,,,1,0,1,0,9,0,9,0,,,none,,,,,,,,,,,,,,,,,,,,,,,,,,,,,,,,,,,,,,,,,,,,,,,,,,,,,,,,,,,,,,,,,,,,,,,,,,,,,,,,,,,,,,,,,,,,,,,,,,,,,,,,,,,,,,,,,,221.09944569994695,None,,,,219.67694802470572,7.064419888354574,0.0005117276892123933,1,"[0.7450650088920766, 0.5370176182712842, 0.4504236471427503, 0.6116719043313623]","[4695.8087047765885, 5482.507460941909, 995.1888558630366, 1610.934185317992]",None,"[-1.825371943492379, -1.099175111788238, 3.314424444196705, 5.022211870740859]",False,222.10812889994122,224.86036529997364,224.86036529997364,None,['space'],1,3.382101760013029,None,None,1,,[0.34721149993129075],,,,,,,,,,,,tyrfqt,001,fr,1,0,2022-04-22_11h35.19.106,Cluster,2022.1.1,35.47496905696009,
,,,,1,0,1,0,10,0,10,0,,,frequency,,,,,,,,,,,,,,,,,,,,,,,,,,,,,,,,,,,,,,,,,,,,,,,,,,,,,,,,,,,,,,,,,,,,,,,,,,,,,,,,,,,,,,,,,,,,,,,,,,,,,,,,,,,,,,,,,,225.8737321998924,None,,,,4425.747013698303,-4.0,7.144587952771885e-05,1,"[0.7080776101134391, 0.7343197493321517, 0.5314783628391844, 0.5884951222776464]","[7025.435465289805, 6258.951450404365, 5576.091824067866, 4967.733058294888]",Tone,"[-1.4208264158412334, -1.0, -1.099175111788238, -1.6305854542215412]",False,226.8800770000089,229.900767599931,229.900767599931,None,['space'],1,3.5838371603749692,None,None,1,,[0.4932469001505524],,,,,,,,,,,,tyrfqt,001,fr,1,0,2022-04-22_11h35.19.106,Cluster,2022.1.1,35.47496905696009,
,,,,1,0,1,0,11,0,11,0,,,none,,,,,,,,,,,,,,,,,,,,,,,,,,,,,,,,,,,,,,,,,,,,,,,,,,,,,,,,,,,,,,,,,,,,,,,,,,,,,,,,,,,,,,,,,,,,,,,,,,,,,,,,,,,,,,,,,,230.9783511001151,None,1650620332.6565948,1650620334.32637,1.6697752475738525,2462.2888266898335,0.0,8.505946547995337e-05,1,"[0.790112828320167, 0.719464566032078, 0.6802423344780886, 0.5231778876807915]","[204.6899795019328, 162.03465129185216, 3462.9864708875707, 3333.439752949815]",None,"[9.0, 5.989536451728783, -1.0852869259872637, -0.7195967390694644]",False,233.66253129998222,236.87293389998376,236.87293389998376,None,['space'],1,3.7455947403796017,None,None,1,,[0.5125976998824626],,,,,,,,,,,,tyrfqt,001,fr,1,0,2022-04-22_11h35.19.106,Cluster,2022.1.1,35.47496905696009,
,,,,1,0,1,0,12,0,12,0,,,frequency,,,,,,,,,,,,,,,,,,,,,,,,,,,,,,,,,,,,,,,,,,,,,,,,,,,,,,,,,,,,,,,,,,,,,,,,,,,,,,,,,,,,,,,,,,,,,,,,,,,,,,,,,,,,,,,,,,237.95422059996054,None,,,,,,,,"[0.4166989209351657, 0.753799445558432, 0.7848450335503275, 0.6844978098324028]","[1861.2664529563203, 2089.2009552348727, 2345.048783542834, 2632.228260960893]",Tone,"[2.78162348863955, 1.0, 0.3938950762819644, -0.03000906409819315]",True,238.9598868000321,241.94568359991536,241.94568359991536,243.18063120008446,None,1,3.682059860089794,4.714708160143346,None,1,,,0,,,,,,,,,,,tyrfqt,001,fr,1,0,2022-04-22_11h35.19.106,Cluster,2022.1.1,35.47496905696009,
,,,,1,0,1,0,13,0,13,0,,,both,,,,,,,,,,,,,,,,,,,,,,,,,,,,,,,,,,,,,,,,,,,,,,,,,,,,,,,,,,,,,,,,,,,,,,,,,,,,,,,,,,,,,,,,,,,,,,,,,,,,,,,,,,,,,,,,,,243.69180919998325,None,,,,866.7855992864469,0.6695217937040217,4.349278477489283e-05,1,"[0.6975323898872587, 0.6975323898872587, 0.6975323898872587, 0.6975323898872587]","[1375.9363721381924, 1225.8199501805843, 1092.081422286737, 972.9339392201326]",Tone,"[6.208779135391241, 5.652799643408654, 4.059225165054532, 3.0]",False,244.7012795000337,247.8175550000742,247.8175550000742,249.01929199998267,['space'],1,3.807477060239762,None,None,1,,[0.6082715000957251],,,,,,,,,,,,tyrfqt,001,fr,1,0,2022-04-22_11h35.19.106,Cluster,2022.1.1,35.47496905696009,
,,,,1,0,1,0,14,0,14,0,,,both,,,,,,,,,,,,,,,,,,,,,,,,,,,,,,,,,,,,,,,,,,,,,,,,,,,,,,,,,,,,,,,,,,,,,,,,,,,,,,,,,,,,,,,,,,,,,,,,,,,,,,,,,,,,,,,,,,249.14859799994156,None,1650620350.807781,1650620352.2519083,1.4441273212432861,125.0,-2.0,0.0005740768107484417,0,"[0.44940546520596575, 0.44940546520596575, 0.44940546520596575, 0.44940546520596575]","[629.9605249474366, 420.4482076268573, 280.6155120773433, 187.2883846095852]",Perfect_5th,"[7.0, 8.211586807684622, 8.0, 8.0]",False,251.58718489995226,253.95670130010694,253.95670130010694,255.15892509999685,None,0,2.8338986800517887,3.841011080192402,None,1,,,,,,,,,,,,,,tyrfqt,001,fr,1,0,2022-04-22_11h35.19.106,Cluster,2022.1.1,35.47496905696009,
,,,,1,0,1,0,15,0,15,0,,,none,,,,,,,,,,,,,,,,,,,,,,,,,,,,,,,,,,,,,,,,,,,,,,,,,,,,,,,,,,,,,,,,,,,,,,,,,,,,,,,,,,,,,,,,,,,,,,,,,,,,,,,,,,,,,,,,,,255.43890170007944,None,,,,152.44870991224312,2.4209904810587295,0.0006321126172981655,0,"[0.4754007176165384, 0.5973259257575663, 0.7371151444698795, 0.4233892712641088]","[139.89124734891843, 570.6526069051969, 572.305295597538, 5118.171837589095]",None,"[3.0, 8.264041947905532, 8.264041947905532, -1.3539693998841358]",False,256.44786319998093,259.2742916001007,259.2742916001007,260.4970670999028,None,0,3.2504795601125807,4.281406359979883,None,1,,,,,,,,,,,,,,tyrfqt,001,fr,1,0,2022-04-22_11h35.19.106,Cluster,2022.1.1,35.47496905696009,
,,,,1,0,1,0,16,0,16,0,,,frequency,,,,,,,,,,,,,,,,,,,,,,,,,,,,,,,,,,,,,,,,,,,,,,,,,,,,,,,,,,,,,,,,,,,,,,,,,,,,,,,,,,,,,,,,,,,,,,,,,,,,,,,,,,,,,,,,,,260.74350280012004,None,1650620362.4176073,1650620363.9742782,1.556670904159546,233.2582478842019,7.0,0.00044837777181730865,0,"[0.5479695632089997, 0.6327873497573897, 0.6755228775691628, 0.59668443917234]","[146.94348828545108, 164.9384888466118, 185.13719403582056, 207.80947403569698]",Tone,"[4.0, 5.989536451728783, 8.0, 9.0]",False,263.3114132999908,266.2053501000628,266.2053501000628,267.43965100008063,None,0,3.4928240603767335,4.525898960418999,['space'],0,[-5.370136399986222],,,,,,,,,,,,,tyrfqt,001,fr,1,0,2022-04-22_11h35.19.106,Cluster,2022.1.1,35.47496905696009,
,,,,1,0,1,0,17,0,17,0,,,frequency,,,,,,,,,,,,,,,,,,,,,,,,,,,,,,,,,,,,,,,,,,,,,,,,,,,,,,,,,,,,,,,,,,,,,,,,,,,,,,,,,,,,,,,,,,,,,,,,,,,,,,,,,,,,,,,,,,267.84994770004414,None,,,,150.5663361052833,2.0,0.0006233034119875609,0,"[0.5256724330037108, 0.7822307288012236, 0.40289029806908183, 0.44427712997366964]","[758.8067850583716, 506.4427691552747, 338.0099960623476, 225.594606925939]",Perfect_5th,"[4.0, 9.163747023797914, 7.234734021061623, 9.192667839365058]",False,268.8578808999155,271.609047899954,271.609047899954,272.8460770000238,None,0,3.178129260195419,4.214265060145408,None,1,,,,,,,,,,,,,,tyrfqt,001,fr,1,0,2022-04-22_11h35.19.106,Cluster,2022.1.1,35.47496905696009,
,,,,1,0,1,0,18,0,18,0,,,none,,,,,,,,,,,,,,,,,,,,,,,,,,,,,,,,,,,,,,,,,,,,,,,,,,,,,,,,,,,,,,,,,,,,,,,,,,,,,,,,,,,,,,,,,,,,,,,,,,,,,,,,,,,,,,,,,,273.08882139995694,None,1650620374.7651355,1650620376.5303109,1.7651753425598145,4594.793419988137,0.0,0.00012486547057085194,1,"[0.5568862766166803, 0.7006144676010784, 0.6605075403715046, 0.5337881498862932]","[1113.433899834992, 1740.825632183104, 3250.6011116856275, 206.0559749088559]",None,"[4.902815181024003, 3.9476880217548187, -0.7195967390694644, 9.0]",False,275.868292799918,278.81852980004624,278.81852980004624,None,['space'],1,3.471839900361374,None,None,1,,[0.3793273000046611],,,,,,,,,,,,tyrfqt,001,fr,1,0,2022-04-22_11h35.19.106,Cluster,2022.1.1,35.47496905696009,
,,,,1,0,1,0,19,0,19,0,,,time,,,,,,,,,,,,,,,,,,,,,,,,,,,,,,,,,,,,,,,,,,,,,,,,,,,,,,,,,,,,,,,,,,,,,,,,,,,,,,,,,,,,,,,,,,,,,,,,,,,,,,,,,,,,,,,,,,279.76484120008536,None,,,,174.89444226676056,5.0,0.0006346254210962013,1,"[0.6371344489857167, 0.6371344489857167, 0.6371344489857167, 0.6371344489857167]","[340.56855535856005, 6848.452065362257, 1613.4693809349124, 125.3433866491221]",None,"[7.234734021061623, -1.4208264158412334, 5.022211870740859, 0.702640164195774]",False,280.77097070007585,283.7221069999505,283.7221069999505,None,['space'],1,3.581059660296887,None,None,1,,[0.36585760000161827],,,,,,,,,,,,tyrfqt,001,fr,1,0,2022-04-22_11h35.19.106,Cluster,2022.1.1,35.47496905696009,
,,,,2,0,2,0,0,0,0,0,,,none,,,,,,,,,,,,,,,,,,,,,,,,,,,,,,,,,,,,,,,,,,,,,,,,,,,,,,,,,,,,,,,,,,,,,,,,,,,,,,,,,,,,,,,,,,,,,,,,,,,,,,,,,,,,,,,,,,294.090211099945,None,,,,,,,,"[0.600452936122176, 0.5773585311635958, 0.7326561763219961, 0.7693426392984792]","[234.35071518788322, 2135.6266024219312, 478.4738834767949, 261.18729287582175]",None,"[9.192667839365058, 1.0, 9.088737075222543, 8.326813114499995]",True,295.0857011999469,298.0433626000304,298.0433626000304,299.27384039992467,None,1,3.7116843601688743,4.7462535600643605,None,1,,,0,,,,,,,,,,,tyrfqt,001,fr,1,0,2022-04-22_11h35.19.106,Cluster,2022.1.1,35.47496905696009,
,,,,2,0,2,0,1,0,1,0,,,time,,,,,,,,,,,,,,,,,,,,,,,,,,,,,,,,,,,,,,,,,,,,,,,,,,,,,,,,,,,,,,,,,,,,,,,,,,,,,,,,,,,,,,,,,,,,,,,,,,,,,,,,,,,,,,,,,,299.84882989991456,None,1650620401.5250242,1650620403.483472,1.9584479331970215,2462.2888266898335,-1.0,7.580932840616338e-05,1,"[0.559796061720604, 0.559796061720604, 0.559796061720604, 0.559796061720604]","[7866.713920761755, 173.96667761099576, 279.51580511700803, 672.4597590108125]",None,"[-2.619118340294624, 7.0, 8.0, 6.0]",False,302.8227981000673,305.54673080006614,305.54673080006614,None,['space'],1,3.280646540224552,None,None,1,,[0.3080070000141859],,,,,,,,,,,,tyrfqt,001,fr,1,0,2022-04-22_11h35.19.106,Cluster,2022.1.1,35.47496905696009,
,,,,2,0,2,0,2,0,2,0,,,time,,,,,,,,,,,,,,,,,,,,,,,,,,,,,,,,,,,,,,,,,,,,,,,,,,,,,,,,,,,,,,,,,,,,,,,,,,,,,,,,,,,,,,,,,,,,,,,,,,,,,,,,,,,,,,,,,,306.4558788998984,None,,,,3752.785404980025,-3.646902474118245,5.230835423369751e-05,1,"[0.5616283480030317, 0.5616283480030317, 0.5616283480030317, 0.5616283480030317]","[355.83344126427335, 3323.3249996363643, 962.1453660635142, 440.2606003692979]",None,"[7.337220816308567, -0.7195967390694644, 3.0, 8.715675910554989]",False,307.4676673999056,310.1874939999543,310.1874939999543,None,['space'],1,3.278011260321364,None,None,1,,[0.41991750011220574],,,,,,,,,,,,tyrfqt,001,fr,1,0,2022-04-22_11h35.19.106,Cluster,2022.1.1,35.47496905696009,
,,,,2,0,2,0,3,0,3,0,,,frequency,,,,,,,,,,,,,,,,,,,,,,,,,,,,,,,,,,,,,,,,,,,,,,,,,,,,,,,,,,,,,,,,,,,,,,,,,,,,,,,,,,,,,,,,,,,,,,,,,,,,,,,,,,,,,,,,,,311.1950469999574,None,1650620412.8680103,1650620414.21369,1.345679759979248,1515.7165665103996,-4.0,3.131458903779733e-05,0,"[0.7146010519425225, 0.40330288827651367, 0.5339921022997509, 0.7358875382248806]","[2406.050072164236, 2143.5469250725887, 1909.6832078208352, 1701.334321901713]",Tone,"[0.12274927998099194, 0.9321212336641782, 2.78162348863955, 4.0]",False,313.5536321999971,316.2231787999626,316.2231787999626,317.45732580008917,None,0,3.41680392017588,4.4436092202086,None,1,,,,,,,,,,,,,,tyrfqt,001,fr,1,0,2022-04-22_11h35.19.106,Cluster,2022.1.1,35.47496905696009,
,,,,2,0,2,0,4,0,4,0,,,both,,,,,,,,,,,,,,,,,,,,,,,,,,,,,,,,,,,,,,,,,,,,,,,,,,,,,,,,,,,,,,,,,,,,,,,,,,,,,,,,,,,,,,,,,,,,,,,,,,,,,,,,,,,,,,,,,,318.0014861000236,None,,,,797.5378389132311,1.0476602298562074,4.3412857665578054e-05,0,"[0.7913867399036076, 0.7913867399036076, 0.7913867399036076, 0.7913867399036076]","[158.25155055941343, 237.1094181298771, 355.262719178107, 532.2926462950109]",Perfect_5th,"[5.0, 9.192667839365058, 7.337220816308567, 8.89347349739519]",False,318.99043969996274,322.398597399937,322.398597399937,323.6369284000248,None,0,4.180853160331026,5.183646660298109,['space'],0,[-4.410828299820423],,,,,,,,,,,,,tyrfqt,001,fr,1,0,2022-04-22_11h35.19.106,Cluster,2022.1.1,35.47496905696009,
,,,,2,0,2,0,5,0,5,0,,,frequency,,,,,,,,,,,,,,,,,,,,,,,,,,,,,,,,,,,,,,,,,,,,,,,,,,,,,,,,,,,,,,,,,,,,,,,,,,,,,,,,,,,,,,,,,,,,,,,,,,,,,,,,,,,,,,,,,,324.1873067000415,None,,,,439.3834821734491,6.447438525281175,0.00015659323523225458,0,"[0.4554109381573127, 0.7145544062372611, 0.46989636426535625, 0.6890858743646963]","[697.4778018195839, 621.3820795724089, 553.5884981664374, 493.19128339371457]",Tone,"[5.059888243962505, 7.334255130632958, 8.89347349739519, 9.163747023797914]",False,325.18993040011264,327.87296060007066,327.87296060007066,329.1087750000879,None,0,3.3477555599529296,4.352598059922457,None,1,,,,,,,,,,,,,,tyrfqt,001,fr,1,0,2022-04-22_11h35.19.106,Cluster,2022.1.1,35.47496905696009,
,,,,2,0,2,0,6,0,6,0,,,time,,,,,,,,,,,,,,,,,,,,,,,,,,,,,,,,,,,,,,,,,,,,,,,,,,,,,,,,,,,,,,,,,,,,,,,,,,,,,,,,,,,,,,,,,,,,,,,,,,,,,,,,,,,,,,,,,,329.5610360999126,None,1650620431.2377813,1650620434.3063972,3.0686159133911133,329.87697769322364,-2.0,7.52697013181096e-05,1,"[0.4524412046442322, 0.4524412046442322, 0.4524412046442322, 0.4524412046442322]","[195.29508794845663, 5081.205390944927, 1450.1999295596222, 3191.91396811085]",None,"[8.2776971649791, -1.6305854542215412, 6.0, -0.7195967390694644]",False,333.64776320010424,336.0217365999706,336.0217365999706,None,['space'],1,2.833427520468831,None,None,1,,[0.5084500000812113],,,,,,,,,,,,tyrfqt,001,fr,1,0,2022-04-22_11h35.19.106,Cluster,2022.1.1,35.47496905696009,
,,,,2,0,2,0,7,0,7,0,,,none,,,,,,,,,,,,,,,,,,,,,,,,,,,,,,,,,,,,,,,,,,,,,,,,,,,,,,,,,,,,,,,,,,,,,,,,,,,,,,,,,,,,,,,,,,,,,,,,,,,,,,,,,,,,,,,,,,337.0193978000898,None,,,,,,,,"[0.5237016759974983, 0.41646989135823004, 0.6706966245657822, 0.7005023291930487]","[1693.1238614468334, 1334.7120800575242, 170.9700527086216, 1535.8042237296615]",None,"[4.0, 6.146476095889664, 7.0, 5.809690816193903]",True,338.03825440001674,340.6729532000609,340.6729532000609,341.9073993000202,['space'],0,3.3525229601655155,None,None,1,,[0.5453258999623358],0,,,,,,,,,,,tyrfqt,001,fr,1,0,2022-04-22_11h35.19.106,Cluster,2022.1.1,35.47496905696009,
,,,,2,0,2,0,8,0,8,0,,,frequency,,,,,,,,,,,,,,,,,,,,,,,,,,,,,,,,,,,,,,,,,,,,,,,,,,,,,,,,,,,,,,,,,,,,,,,,,,,,,,,,,,,,,,,,,,,,,,,,,,,,,,,,,,,,,,,,,,341.95824609999545,None,1650620443.6236231,1650620445.0566742,1.4330511093139648,659.7539553864473,5.0,8.634514805083658e-05,1,"[0.5871258077768052, 0.6273048864653333, 0.4999028427604367, 0.7105240918699648]","[3324.9515845711517, 2219.1389441356905, 1481.0975522865647, 988.5140203528964]",Perfect_5th,"[-0.7195967390694644, 0.9321212336641782, 6.0, 3.314424444196705]",False,344.40095770009793,347.15785469999537,347.15785469999537,None,['space'],1,3.4625729804392904,None,None,1,,[0.4507846999913454],,,,,,,,,,,,tyrfqt,001,fr,1,0,2022-04-22_11h35.19.106,Cluster,2022.1.1,35.47496905696009,
,,,,2,0,2,0,9,0,9,0,,,both,,,,,,,,,,,,,,,,,,,,,,,,,,,,,,,,,,,,,,,,,,,,,,,,,,,,,,,,,,,,,,,,,,,,,,,,,,,,,,,,,,,,,,,,,,,,,,,,,,,,,,,,,,,,,,,,,,348.39572230004705,None,1650620450.0066657,1650620451.211373,1.204707384109497,1414.213562373095,-4.0,3.1820655351395835e-05,1,"[0.5690814747480784, 0.5690814747480784, 0.5690814747480784, 0.5690814747480784]","[280.6155120773433, 420.4482076268573, 629.9605249474366, 943.8743126816935]",Perfect_5th,"[8.0, 8.211586807684622, 7.0, 3.0]",False,350.55343799991533,353.30593229993246,353.30593229993246,None,['space'],1,3.3295773200225085,None,None,1,,[0.36963520012795925],,,,,,,,,,,,tyrfqt,001,fr,1,0,2022-04-22_11h35.19.106,Cluster,2022.1.1,35.47496905696009,
,,,,2,0,2,0,10,0,10,0,,,none,,,,,,,,,,,,,,,,,,,,,,,,,,,,,,,,,,,,,,,,,,,,,,,,,,,,,,,,,,,,,,,,,,,,,,,,,,,,,,,,,,,,,,,,,,,,,,,,,,,,,,,,,,,,,,,,,,354.2864415999502,None,,,,4037.7424917037656,-3.913313552744004,5.5148878636775425e-05,0,"[0.40673749982817886, 0.6294496184891459, 0.7591846955922213, 0.70356495725646]","[213.26755701456528, 157.96040812589206, 4686.010644540394, 2029.2347248452663]",None,"[9.25797861941169, 5.0, -1.825371943492379, 1.7287990404199483]",False,355.29494219995104,358.1073288000189,358.1073288000189,359.3108427999541,None,0,3.533286160090938,4.5657579600811005,None,1,,,,,,,,,,,,,,tyrfqt,001,fr,1,0,2022-04-22_11h35.19.106,Cluster,2022.1.1,35.47496905696009,
,,,,2,0,2,0,11,0,11,0,,,frequency,,,,,,,,,,,,,,,,,,,,,,,,,,,,,,,,,,,,,,,,,,,,,,,,,,,,,,,,,,,,,,,,,,,,,,,,,,,,,,,,,,,,,,,,,,,,,,,,,,,,,,,,,,,,,,,,,,359.87693620007485,None,,,,628.8360244175573,5.0,9.13079440143995e-05,1,"[0.7151319990008956, 0.6976860764983523, 0.7510340271657321, 0.6835740059663913]","[249.55374166898275, 314.4180122087787, 396.1418720479435, 499.10748333796545]",Major_3rd,"[8.840291789389005, 7.399046871854939, 8.0, 9.163747023797914]",False,360.88772689993493,364.0995853000786,364.0995853000786,None,['space'],1,3.8730934602208436,None,['space'],0,[-4.1455227001570165],[0.4705862000118941],,,,,,,,,,,,tyrfqt,001,fr,1,0,2022-04-22_11h35.19.106,Cluster,2022.1.1,35.47496905696009,
,,,,2,0,2,0,12,0,12,0,,,both,,,,,,,,,,,,,,,,,,,,,,,,,,,,,,,,,,,,,,,,,,,,,,,,,,,,,,,,,,,,,,,,,,,,,,,,,,,,,,,,,,,,,,,,,,,,,,,,,,,,,,,,,,,,,,,,,,365.269130300032,None,,,,,,,,"[0.6442982213005857, 0.6442982213005857, 0.6442982213005857, 0.6442982213005857]","[1794.326648070628, 1424.158004360944, 1130.354957145747, 897.163324035314]",Major_3rd,"[3.0, 6.208779135391241, 4.902815181024003, 2.835141011822397]",True,366.2902418000158,369.2514214999974,369.2514214999974,370.4790302000474,None,1,3.593788060126826,4.6236820600461215,None,1,,,0,,,,,,,,,,,tyrfqt,001,fr,1,0,2022-04-22_11h35.19.106,Cluster,2022.1.1,35.47496905696009,
,,,,2,0,2,0,13,0,13,0,,,frequency,,,,,,,,,,,,,,,,,,,,,,,,,,,,,,,,,,,,,,,,,,,,,,,,,,,,,,,,,,,,,,,,,,,,,,,,,,,,,,,,,,,,,,,,,,,,,,,,,,,,,,,,,,,,,,,,,,370.9295544999186,None,1650620472.5998602,1650620474.0728672,1.4730069637298584,8000.0,-4.0,0.00011454338263838867,1,"[0.6592618517327061, 0.6348311449178343, 0.7138617399100557, 0.4486867150480367]","[1587.4010519681997, 2378.4142300054423, 3563.5948725613575, 5339.359416680138]",Perfect_5th,"[5.022211870740859, 0.3938950762819644, -1.0852869259872637, -1.3539693998841358]",False,373.41683169989847,376.4530309000984,376.4530309000984,None,['space'],1,3.498805400216952,None,None,1,,[0.36303899995982647],,,,,,,,,,,,tyrfqt,001,fr,1,0,2022-04-22_11h35.19.106,Cluster,2022.1.1,35.47496905696009,
,,,,2,0,2,0,14,0,14,0,,,none,,,,,,,,,,,,,,,,,,,,,,,,,,,,,,,,,,,,,,,,,,,,,,,,,,,,,,,,,,,,,,,,,,,,,,,,,,,,,,,,,,,,,,,,,,,,,,,,,,,,,,,,,,,,,,,,,,377.29471369995736,None,1650620478.9669027,1650620480.705674,1.7387712001800537,500.0,1.0,8.01622695345021e-05,0,"[0.5499114805151362, 0.7052552303943548, 0.7169730351928473, 0.711513415380872]","[574.3255338830387, 901.9994935745864, 1670.335988176817, 524.5396249029694]",None,"[8.264041947905532, 2.8793151476970755, 5.0, 9.0]",False,380.0487065000925,383.0567097000312,383.0567097000312,384.26120089995675,None,0,3.697757880203426,4.725378980394453,['space'],0,[0.592974100029096],,,,,,,,,,,,,tyrfqt,001,fr,1,0,2022-04-22_11h35.19.106,Cluster,2022.1.1,35.47496905696009,
,,,,2,0,2,0,15,0,15,0,,,none,,,,,,,,,,,,,,,,,,,,,,,,,,,,,,,,,,,,,,,,,,,,,,,,,,,,,,,,,,,,,,,,,,,,,,,,,,,,,,,,,,,,,,,,,,,,,,,,,,,,,,,,,,,,,,,,,,384.80105559993535,None,,,,154.04872667933057,2.4209904810587295,0.0006132890705885059,1,"[0.434239568321386, 0.5210097944328766, 0.5227324810450642, 0.6130287628208042]","[350.88832735239725, 229.77585934338737, 7688.387539887829, 334.20226124749087]",None,"[7.337220816308567, 9.192667839365058, -2.0, 7.234734021061623]",False,385.815152999945,388.32670650002547,388.32670650002547,None,['space'],1,3.107681760098785,None,None,1,,[0.3697387999854982],,,,,,,,,,,,tyrfqt,001,fr,1,0,2022-04-22_11h35.19.106,Cluster,2022.1.1,35.47496905696009,
,,,,2,0,2,0,16,0,16,0,,,time,,,,,,,,,,,,,,,,,,,,,,,,,,,,,,,,,,,,,,,,,,,,,,,,,,,,,,,,,,,,,,,,,,,,,,,,,,,,,,,,,,,,,,,,,,,,,,,,,,,,,,,,,,,,,,,,,,389.34328519995324,None,,,,,,,,"[0.5286089910693328, 0.5286089910693328, 0.5286089910693328, 0.5286089910693328]","[2421.5534090346428, 4757.889994789597, 173.73655975329777, 4714.427920561619]",None,"[0.12274927998099194, -1.825371943492379, 7.0, -1.825371943492379]",True,390.35050359996967,392.9700162000954,392.9700162000954,None,['space'],0,3.146425459999591,None,None,1,,[0.5340175998862833],0,,,,,,,,,,,tyrfqt,001,fr,1,0,2022-04-22_11h35.19.106,Cluster,2022.1.1,35.47496905696009,
,,,,2,0,2,0,17,0,17,0,,,time,,,,,,,,,,,,,,,,,,,,,,,,,,,,,,,,,,,,,,,,,,,,,,,,,,,,,,,,,,,,,,,,,,,,,,,,,,,,,,,,,,,,,,,,,,,,,,,,,,,,,,,,,,,,,,,,,,394.0774940000847,None,,,,125.99584754685151,-1.4221958242828523,0.0006060376831168747,0,"[0.6940345635511791, 0.6940345635511791, 0.6940345635511791, 0.6940345635511791]","[337.7875765068594, 4856.5432666578345, 576.899095117726, 307.91941676582286]",None,"[7.234734021061623, -1.6305854542215412, 8.264041947905532, 7.399046871854939]",False,395.084543999983,398.2080568000674,398.2080568000674,399.4387598000467,None,0,3.814059560187161,4.8344133601058275,None,1,,,,,,,,,,,,,,tyrfqt,001,fr,1,0,2022-04-22_11h35.19.106,Cluster,2022.1.1,35.47496905696009,
,,,,2,0,2,0,18,0,18,0,,,none,,,,,,,,,,,,,,,,,,,,,,,,,,,,,,,,,,,,,,,,,,,,,,,,,,,,,,,,,,,,,,,,,,,,,,,,,,,,,,,,,,,,,,,,,,,,,,,,,,,,,,,,,,,,,,,,,,399.93214239994995,None,1650620501.5885582,1650620503.735141,2.146582841873169,1515.7165665103996,-3.0,3.5135546789290564e-05,0,"[0.7494674256000329, 0.45317818273970556, 0.5240871157530897, 0.6425123099619926]","[573.8910185261175, 2281.7084972787065, 184.14862470828362, 3129.176448563198]",None,"[8.264041947905532, 0.3938950762819644, 8.0, -0.41565361304880266]",False,403.079749800032,405.8337000000756,405.8337000000756,407.05458260001615,None,0,3.410020180279389,4.431903880089521,['space'],0,[-5.592117500025779],,,,,,,,,,,,,tyrfqt,001,fr,1,0,2022-04-22_11h35.19.106,Cluster,2022.1.1,35.47496905696009,
,,,,2,0,2,0,19,0,19,0,,,frequency,,,,,,,,,,,,,,,,,,,,,,,,,,,,,,,,,,,,,,,,,,,,,,,,,,,,,,,,,,,,,,,,,,,,,,,,,,,,,,,,,,,,,,,,,,,,,,,,,,,,,,,,,,,,,,,,,,407.5234781000763,None,,,,5746.179782638727,-3.1164168586801693,8.747550505104433e-05,1,"[0.7547913085951881, 0.7842021500265256, 0.5761904328217176, 0.4950069474992516]","[1140.1864789698895, 1708.349470399691, 2559.632101278388, 3835.1148915461395]",Perfect_5th,"[4.902815181024003, 4.0, 0.0, -1.4686279785677971]",False,408.52763890009373,411.66335380007513,411.66335380007513,None,['space'],1,3.621094160247594,None,None,1,,[0.535175499971956],,,,,,,,,,,,tyrfqt,001,fr,1,0,2022-04-22_11h35.19.106,Cluster,2022.1.1,35.47496905696009,
,,,,3,0,3,0,0,0,0,0,,,both,,,,,,,,,,,,,,,,,,,,,,,,,,,,,,,,,,,,,,,,,,,,,,,,,,,,,,,,,,,,,,,,,,,,,,,,,,,,,,,,,,,,,,,,,,,,,,,,,,,,,,,,,,,,,,,,,,415.19892939995043,None,,,,1368.1089458890049,3.964739542987289,8.141281532674407e-05,0,"[0.7267580536751677, 0.7267580536751677, 0.7267580536751677, 0.7267580536751677]","[861.8546297375215, 967.3991130400947, 1085.8687899556553, 1218.8465061688453]",Tone,"[2.835141011822397, 3.0, 4.059225165054532, 5.652799643408654]",False,416.17797200009227,419.3992618001066,419.3992618001066,420.59928629989736,None,0,3.9439968599472195,4.94852485996671,None,1,,,,,,,,,,,,,,tyrfqt,001,fr,1,0,2022-04-22_11h35.19.106,Cluster,2022.1.1,35.47496905696009,
,,,,3,0,3,0,1,0,1,0,,,time,,,,,,,,,,,,,,,,,,,,,,,,,,,,,,,,,,,,,,,,,,,,,,,,,,,,,,,,,,,,,,,,,,,,,,,,,,,,,,,,,,,,,,,,,,,,,,,,,,,,,,,,,,,,,,,,,,421.145409299992,None,1650620522.8105645,1650620525.4806843,2.6701197624206543,574.3491774985172,-4.0,3.7760398549436506e-05,0,"[0.792397105617782, 0.792397105617782, 0.792397105617782, 0.792397105617782]","[5837.052561176225, 149.64344696161444, 2351.338895510482, 2916.806929402407]",None,"[-1.0, 4.0, 0.3938950762819644, -0.1909083371422149]",False,424.8263338000979,428.22574170003645,428.22574170003645,429.4290998999495,None,0,4.1981300404295325,5.206934540532529,None,1,,,,,,,,,,,,,,tyrfqt,001,fr,1,0,2022-04-22_11h35.19.106,Cluster,2022.1.1,35.47496905696009,
,,,,3,0,3,0,2,0,2,0,,,time,,,,,,,,,,,,,,,,,,,,,,,,,,,,,,,,,,,,,,,,,,,,,,,,,,,,,,,,,,,,,,,,,,,,,,,,,,,,,,,,,,,,,,,,,,,,,,,,,,,,,,,,,,,,,,,,,,430.0482139000669,None,,,,,,,,"[0.5340012079104195, 0.5340012079104195, 0.5340012079104195, 0.5340012079104195]","[369.72793932985905, 4827.4372527741225, 2570.552739355562, 340.12512179038464]",None,"[7.693636570531561, -1.6305854542215412, 0.0, 7.234734021061623]",True,431.06409229990095,433.6862647999078,433.6862647999078,434.89327060012147,None,1,3.178063460160047,4.191042960155755,None,1,,,0,,,,,,,,,,,tyrfqt,001,fr,1,0,2022-04-22_11h35.19.106,Cluster,2022.1.1,35.47496905696009,
,,,,3,0,3,0,3,0,3,0,,,time,,,,,,,,,,,,,,,,,,,,,,,,,,,,,,,,,,,,,,,,,,,,,,,,,,,,,,,,,,,,,,,,,,,,,,,,,,,,,,,,,,,,,,,,,,,,,,,,,,,,,,,,,,,,,,,,,,435.26619719993323,None,,,,5498.543135697587,-3.1164168586801693,9.385434468838948e-05,0,"[0.402086392787624, 0.402086392787624, 0.402086392787624, 0.402086392787624]","[7408.61656741394, 2698.6867416870223, 1167.1536796809078, 198.33202809343643]",None,"[-1.9224556041955818, -0.03000906409819315, 5.0, 8.973732267488668]",False,436.26169950002804,438.5085154999979,438.5085154999979,439.7098600999452,None,0,2.6455260599032044,3.658364459872246,None,1,,,,,,,,,,,,,,tyrfqt,001,fr,1,0,2022-04-22_11h35.19.106,Cluster,2022.1.1,35.47496905696009,
,,,,3,0,3,0,4,0,4,0,,,frequency,,,,,,,,,,,,,,,,,,,,,,,,,,,,,,,,,,,,,,,,,,,,,,,,,,,,,,,,,,,,,,,,,,,,,,,,,,,,,,,,,,,,,,,,,,,,,,,,,,,,,,,,,,,,,,,,,,439.93382799997926,None,1650620541.5960724,1650620543.0382032,1.4421308040618896,3249.0095854249403,-5.0,3.9789718818038276e-05,1,"[0.7511693967595647, 0.7250764965337856, 0.692810115333977, 0.5128223699729272]","[5157.481233758315, 4594.793419988138, 4093.4955679870977, 3646.8899542328654]",Tone,"[-1.3539693998841358, -1.825371943492379, -1.7450720210032946, -1.4686279785677971]",False,442.3859009000007,445.5808955999091,445.5808955999091,None,['space'],1,3.711228980217129,None,None,1,,[0.4793591001071036],,,,,,,,,,,,tyrfqt,001,fr,1,0,2022-04-22_11h35.19.106,Cluster,2022.1.1,35.47496905696009,
,,,,3,0,3,0,5,0,5,0,,,both,,,,,,,,,,,,,,,,,,,,,,,,,,,,,,,,,,,,,,,,,,,,,,,,,,,,,,,,,,,,,,,,,,,,,,,,,,,,,,,,,,,,,,,,,,,,,,,,,,,,,,,,,,,,,,,,,,446.60109329991974,None,1650620548.2724996,1650620552.0210292,3.7485296726226807,1414.213562373095,-2.0,4.005983164181629e-05,0,"[0.7078474632901963, 0.7078474632901963, 0.7078474632901963, 0.7078474632901963]","[2244.9240966187467, 2000.0000000000005, 1781.797436280679, 1587.4010519681997]",Tone,"[0.3938950762819644, 1.7287990404199483, 3.9476880217548187, 5.022211870740859]",False,451.36906550009735,454.51795000000857,454.51795000000857,455.73370270011947,None,0,3.8689303004648536,4.879546200623736,None,1,,,,,,,,,,,,,,tyrfqt,001,fr,1,0,2022-04-22_11h35.19.106,Cluster,2022.1.1,35.47496905696009,
,,,,3,0,3,0,6,0,6,0,,,none,,,,,,,,,,,,,,,,,,,,,,,,,,,,,,,,,,,,,,,,,,,,,,,,,,,,,,,,,,,,,,,,,,,,,,,,,,,,,,,,,,,,,,,,,,,,,,,,,,,,,,,,,,,,,,,,,,456.2684216001071,None,,,,368.71765417583487,5.481551428288473,0.00015916061311157585,0,"[0.41666173429893594, 0.464985006687542, 0.5770593845528077, 0.7027168536978041]","[1002.8309688675729, 5357.571630417137, 6748.450258472654, 2718.8847524906864]",None,"[3.314424444196705, -1.3539693998841358, -1.4208264158412334, -0.03000906409819315]",False,457.2673039000947,459.7606977999676,459.7606977999676,460.97252600011416,None,0,3.188065460184589,4.215123360045254,None,1,,,,,,,,,,,,,,tyrfqt,001,fr,1,0,2022-04-22_11h35.19.106,Cluster,2022.1.1,35.47496905696009,
,,,,3,0,3,0,7,0,7,0,,,both,,,,,,,,,,,,,,,,,,,,,,,,,,,,,,,,,,,,,,,,,,,,,,,,,,,,,,,,,,,,,,,,,,,,,,,,,,,,,,,,,,,,,,,,,,,,,,,,,,,,,,,,,,,,,,,,,,461.4952605001163,None,,,,2607.6716856683424,-2.371623868154916,6.0279269682800624e-05,0,"[0.5295294846728666, 0.5295294846728666, 0.5295294846728666, 0.5295294846728666]","[517.4275971272018, 775.265430546983, 1161.585681046392, 1740.4120463104289]",Perfect_5th,"[9.0, 4.0, 5.0, 3.9476880217548187]",False,462.50185060012154,465.12932910001837,465.12932910001837,466.36014329991303,None,0,3.1530251600779593,4.181059960043058,None,1,,,,,,,,,,,,,,tyrfqt,001,fr,1,0,2022-04-22_11h35.19.106,Cluster,2022.1.1,35.47496905696009,
,,,,3,0,3,0,8,0,8,0,,,none,,,,,,,,,,,,,,,,,,,,,,,,,,,,,,,,,,,,,,,,,,,,,,,,,,,,,,,,,,,,,,,,,,,,,,,,,,,,,,,,,,,,,,,,,,,,,,,,,,,,,,,,,,,,,,,,,,466.7008515999187,None,1650620568.367469,1650620570.1200242,1.7525551319122314,2000.0,-1.0,6.667607160816621e-05,0,"[0.5484766318578429, 0.6950287147912682, 0.5964227084402232, 0.5440642016551724]","[2933.106579077681, 162.7485161304465, 338.9971000243098, 132.15115723482924]",None,"[-0.41565361304880266, 5.989536451728783, 7.234734021061623, 1.922254749025186]",False,469.46774909994565,472.3379196000751,472.3379196000751,473.5526910999324,None,0,3.402542400173843,4.4152084002271295,None,1,,,,,,,,,,,,,,tyrfqt,001,fr,1,0,2022-04-22_11h35.19.106,Cluster,2022.1.1,35.47496905696009,
,,,,3,0,3,0,9,0,9,0,,,frequency,,,,,,,,,,,,,,,,,,,,,,,,,,,,,,,,,,,,,,,,,,,,,,,,,,,,,,,,,,,,,,,,,,,,,,,,,,,,,,,,,,,,,,,,,,,,,,,,,,,,,,,,,,,,,,,,,,473.89351490000263,None,,,,,,,,"[0.7583212734260122, 0.6821785069081183, 0.4453900799266533, 0.48532055096207083]","[265.4092009198749, 334.3946390747281, 421.3108447422486, 530.8184018397498]",Major_3rd,"[8.326813114499995, 7.234734021061623, 8.715675910554989, 8.89347349739519]",True,474.890883800108,477.8050422000233,477.8050422000233,None,['space'],0,3.3892929600551724,None,['space'],0,[-3.3074424997903407],[0.683610700070858],0,,,,,,,,,,,tyrfqt,001,fr,1,0,2022-04-22_11h35.19.106,Cluster,2022.1.1,35.47496905696009,
,,,,3,0,3,0,10,0,10,0,,,both,,,,,,,,,,,,,,,,,,,,,,,,,,,,,,,,,,,,,,,,,,,,,,,,,,,,,,,,,,,,,,,,,,,,,,,,,,,,,,,,,,,,,,,,,,,,,,,,,,,,,,,,,,,,,,,,,,478.99684010003693,None,1650620580.651804,1650620582.522715,1.8709111213684082,203.0630990890589,7.0,0.000580816115511409,0,"[0.7004250426795097, 0.7004250426795097, 0.7004250426795097, 0.7004250426795097]","[511.6869459983876, 406.1261981781179, 322.3425771098949, 255.84347299919378]",Major_3rd,"[9.0, 8.211586807684622, 7.234734021061623, 8.840291789389005]",False,481.92316429992206,485.05022690002806,485.05022690002806,486.2799253000412,None,0,3.829808220267296,4.861265520332381,None,1,,,,,,,,,,,,,,tyrfqt,001,fr,1,0,2022-04-22_11h35.19.106,Cluster,2022.1.1,35.47496905696009,
,,,,3,0,3,0,11,0,11,0,,,none,,,,,,,,,,,,,,,,,,,,,,,,,,,,,,,,,,,,,,,,,,,,,,,,,,,,,,,,,,,,,,,,,,,,,,,,,,,,,,,,,,,,,,,,,,,,,,,,,,,,,,,,,,,,,,,,,,486.7954957000911,None,,,,5037.335768130588,-3.671967592225198,9.918346557899452e-05,0,"[0.6722126804698161, 0.5874532197208574, 0.6029217494341099, 0.7756426417336051]","[700.5765448514906, 4415.416571916534, 6474.716842650332, 1861.5523083175387]",None,"[5.059888243962505, -1.8708373282903583, -1.090804645452339, 2.78162348863955]",False,487.8082141999621,490.6761068000924,490.6761068000924,491.89307070011273,None,0,3.648819860070944,4.669870960060507,None,1,,,,,,,,,,,,,,tyrfqt,001,fr,1,0,2022-04-22_11h35.19.106,Cluster,2022.1.1,35.47496905696009,
,,,,3,0,3,0,12,0,12,0,,,time,,,,,,,,,,,,,,,,,,,,,,,,,,,,,,,,,,,,,,,,,,,,,,,,,,,,,,,,,,,,,,,,,,,,,,,,,,,,,,,,,,,,,,,,,,,,,,,,,,,,,,,,,,,,,,,,,,492.49402330000885,None,1650620594.168375,1650620597.0691075,2.9007325172424316,1414.213562373095,-4.0,3.1820655351395835e-05,1,"[0.552395833227831, 0.552395833227831, 0.552395833227831, 0.552395833227831]","[282.7623299243944, 1400.7259714108372, 433.21143452975804, 1376.9999757692408]",None,"[8.0, 6.208779135391241, 8.715675910554989, 6.208779135391241]",False,496.41906969994307,499.1011105000507,499.1011105000507,None,['space'],1,3.2342907006386667,None,['space'],0,[-5.052075500134379],[0.4028371998574585],,,,,,,,,,,,tyrfqt,001,fr,1,0,2022-04-22_11h35.19.106,Cluster,2022.1.1,35.47496905696009,
,,,,3,0,3,0,13,0,13,0,,,none,,,,,,,,,,,,,,,,,,,,,,,,,,,,,,,,,,,,,,,,,,,,,,,,,,,,,,,,,,,,,,,,,,,,,,,,,,,,,,,,,,,,,,,,,,,,,,,,,,,,,,,,,,,,,,,,,,500.11610769992694,None,1650620601.7727575,1650620603.7327898,1.9600322246551514,1231.1444133449168,-1.0,4.787849028197256e-05,1,"[0.605905749902989, 0.4484807974984555, 0.6859874437443894, 0.44774689138062373]","[148.82927730052356, 3140.8119605511015, 2123.912044559742, 165.20345702316385]",None,"[4.0, -0.7195967390694644, 1.0, 6.0]",False,503.08276650006883,505.8405820000917,505.8405820000917,507.07492729998194,['space'],1,3.2156427402514964,None,None,1,,[0.864154500188306],,,,,,,,,,,,tyrfqt,001,fr,1,0,2022-04-22_11h35.19.106,Cluster,2022.1.1,35.47496905696009,
,,,,3,0,3,0,14,0,14,0,,,frequency,,,,,,,,,,,,,,,,,,,,,,,,,,,,,,,,,,,,,,,,,,,,,,,,,,,,,,,,,,,,,,,,,,,,,,,,,,,,,,,,,,,,,,,,,,,,,,,,,,,,,,,,,,,,,,,,,,507.190561800031,None,,,,,,,,"[0.5593398425421798, 0.5372769078619957, 0.7670853688094366, 0.4964002462318779]","[1768.4610324000741, 2228.1212806396725, 2807.2569031966455, 3536.9220648001474]",Major_3rd,"[3.9476880217548187, 0.3938950762819644, -0.1909083371422149, -1.0852869259872637]",True,508.19112670002505,511.07968580001034,511.07968580001034,None,['space'],0,3.384657160146162,None,None,1,,[0.5678489001002163],0,,,,,,,,,,,tyrfqt,001,fr,1,0,2022-04-22_11h35.19.106,Cluster,2022.1.1,35.47496905696009,
,,,,3,0,3,0,15,0,15,0,,,both,,,,,,,,,,,,,,,,,,,,,,,,,,,,,,,,,,,,,,,,,,,,,,,,,,,,,,,,,,,,,,,,,,,,,,,,,,,,,,,,,,,,,,,,,,,,,,,,,,,,,,,,,,,,,,,,,,512.1643338999711,None,,,,413.79636314630835,6.0,0.0001513394968077742,0,"[0.45175381324056485, 0.45175381324056485, 0.45175381324056485, 0.45175381324056485]","[2085.402993191908, 1391.8395136590198, 928.9414267203488, 619.994019287947]",Perfect_5th,"[1.0, 6.208779135391241, 2.8793151476970755, 7.334255130632958]",False,513.1677987000439,515.5499116999563,515.5499116999563,516.7839017999358,None,0,2.8453088600654155,3.877757460111752,None,1,,,,,,,,,,,,,,tyrfqt,001,fr,1,0,2022-04-22_11h35.19.106,Cluster,2022.1.1,35.47496905696009,
,,,,3,0,3,0,16,0,16,0,,,time,,,,,,,,,,,,,,,,,,,,,,,,,,,,,,,,,,,,,,,,,,,,,,,,,,,,,,,,,,,,,,,,,,,,,,,,,,,,,,,,,,,,,,,,,,,,,,,,,,,,,,,,,,,,,,,,,,517.0674489000812,None,,,,3913.818287936414,-3.913313552744004,5.252979470365201e-05,0,"[0.7689930680428935, 0.7689930680428935, 0.7689930680428935, 0.7689930680428935]","[268.5689188591753, 134.5164665415142, 5485.505600009163, 2879.1543475053663]",None,"[8.326813114499995, 2.0, -1.099175111788238, -0.1909083371422149]",False,518.0703352999408,521.4222999999765,521.4222999999765,522.6606769999489,None,0,4.120208460139111,5.1512770601548254,None,1,,,,,,,,,,,,,,tyrfqt,001,fr,1,0,2022-04-22_11h35.19.106,Cluster,2022.1.1,35.47496905696009,
,,,,3,0,3,0,17,0,17,0,,,none,,,,,,,,,,,,,,,,,,,,,,,,,,,,,,,,,,,,,,,,,,,,,,,,,,,,,,,,,,,,,,,,,,,,,,,,,,,,,,,,,,,,,,,,,,,,,,,,,,,,,,,,,,,,,,,,,,523.2386217000894,None,,,,6404.325402462275,-3.174846809994529,9.239854536092159e-05,0,"[0.43041059143743926, 0.7694068778733705, 0.5402224364150474, 0.6025809197725712]","[372.3748344990869, 6241.823288626604, 6981.952505096205, 160.02335315656697]",None,"[7.693636570531561, -1.0, -1.4208264158412334, 5.0]",False,524.2435459999833,527.028501200024,527.028501200024,528.2462700000033,None,0,3.380761360283941,4.412538260221481,"['space', 'space']",0,"[-3.553955800132826, 0.029683700064197183]",,,,,,,,,,,,,tyrfqt,001,fr,1,0,2022-04-22_11h35.19.106,Cluster,2022.1.1,35.47496905696009,
,,,,3,0,3,0,18,0,18,0,,,none,,,,,,,,,,,,,,,,,,,,,,,,,,,,,,,,,,,,,,,,,,,,,,,,,,,,,,,,,,,,,,,,,,,,,,,,,,,,,,,,,,,,,,,,,,,,,,,,,,,,,,,,,,,,,,,,,,528.677537499927,None,1650620630.338778,1650620632.3306277,1.991849660873413,3031.4331330207992,-3.0,4.091827205982744e-05,0,"[0.4334270852560327, 0.6923323940871782, 0.6918729281643508, 0.5023232815080664]","[759.3249379536671, 5755.822872080327, 203.91527071640698, 232.47561100315858]",None,"[4.0, -1.099175111788238, 9.0, 9.192667839365058]",False,531.6809570000041,534.5361564999912,534.5361564999912,535.7418058000039,None,0,3.345807960489765,4.3788016606122255,None,1,,,,,,,,,,,,,,tyrfqt,001,fr,1,0,2022-04-22_11h35.19.106,Cluster,2022.1.1,35.47496905696009,
,,,,3,0,3,0,19,0,19,0,,,both,,,,,,,,,,,,,,,,,,,,,,,,,,,,,,,,,,,,,,,,,,,,,,,,,,,,,,,,,,,,,,,,,,,,,,,,,,,,,,,,,,,,,,,,,,,,,,,,,,,,,,,,,,,,,,,,,,536.0897629000247,None,1650620637.7478948,1650620639.275921,1.5280263423919678,287.17458874925893,18.0,0.001017531505521433,1,"[0.7628038045589483, 0.7628038045589483, 0.7628038045589483, 0.7628038045589483]","[180.90865468004733, 203.06309908905897, 227.93062213955432, 255.84347299919386]",Tone,"[7.250110335393013, 8.973732267488668, 9.192667839365058, 8.840291789389005]",False,538.6265980999451,541.9428463999648,541.9428463999648,543.1792111000977,['space'],1,4.082938440144062,None,['space'],0,[-5.572141700191423],[0.5384551000315696],,,,,,,,,,,,tyrfqt,001,fr,1,0,2022-04-22_11h35.19.106,Cluster,2022.1.1,35.47496905696009,
,,,,4,0,4,0,0,0,0,0,,,frequency,,,,,,,,,,,,,,,,,,,,,,,,,,,,,,,,,,,,,,,,,,,,,,,,,,,,,,,,,,,,,,,,,,,,,,,,,,,,,,,,,,,,,,,,,,,,,,,,,,,,,,,,,,,,,,,,,,548.6761407000013,None,,,,,,,,"[0.674423747281784, 0.6647440873921905, 0.4158944929316081, 0.4377351742230764]","[302.94504776098006, 340.0443188349705, 381.6868426354665, 428.42899519734306]",Tone,"[7.399046871854939, 7.234734021061623, 7.693636570531561, 8.715675910554989]",True,549.6741955999751,552.4550829001237,552.4550829001237,553.6602807999589,None,1,3.2098497599363327,4.227741359965876,None,1,,,0,,,,,,,,,,,tyrfqt,001,fr,1,0,2022-04-22_11h35.19.106,Cluster,2022.1.1,35.47496905696009,
,,,,4,0,4,0,1,0,1,0,,,frequency,,,,,,,,,,,,,,,,,,,,,,,,,,,,,,,,,,,,,,,,,,,,,,,,,,,,,,,,,,,,,,,,,,,,,,,,,,,,,,,,,,,,,,,,,,,,,,,,,,,,,,,,,,,,,,,,,,553.9177298999857,None,,,,7190.297099399553,-3.5303949681916036,0.00010456012249539527,1,"[0.5084244514183048, 0.6768105497898174, 0.4730750455503807, 0.5148440341234236]","[4529.603335265772, 5084.307837731387, 5706.942589775372, 6405.826468903261]",Tone,"[-1.825371943492379, -1.6305854542215412, -1.099175111788238, -1.090804645452339]",False,554.9105760001112,557.5931134999264,557.5931134999264,558.8272832001094,['space'],1,3.2122289601247758,None,None,1,,[0.8186170000117272],,,,,,,,,,,,tyrfqt,001,fr,1,0,2022-04-22_11h35.19.106,Cluster,2022.1.1,35.47496905696009,
,,,,4,0,4,0,2,0,2,0,,,time,,,,,,,,,,,,,,,,,,,,,,,,,,,,,,,,,,,,,,,,,,,,,,,,,,,,,,,,,,,,,,,,,,,,,,,,,,,,,,,,,,,,,,,,,,,,,,,,,,,,,,,,,,,,,,,,,,558.9772644001059,None,1650620660.6345167,1650620663.4187558,2.7842390537261963,870.5505632961246,-4.0,2.5473799685121028e-05,0,"[0.7662414475900283, 0.7662414475900283, 0.7662414475900283, 0.7662414475900283]","[273.9516385227371, 7910.467007507264, 1337.6623546351138, 4602.844994980444]",None,"[8.326813114499995, -2.619118340294624, 6.146476095889664, -1.825371943492379]",False,562.7693624999374,566.1018119000364,566.1018119000364,567.3368516000919,None,0,4.094102820614353,5.1121813205536455,None,1,,,,,,,,,,,,,,tyrfqt,001,fr,1,0,2022-04-22_11h35.19.106,Cluster,2022.1.1,35.47496905696009,
,,,,4,0,4,0,3,0,3,0,,,both,,,,,,,,,,,,,,,,,,,,,,,,,,,,,,,,,,,,,,,,,,,,,,,,,,,,,,,,,,,,,,,,,,,,,,,,,,,,,,,,,,,,,,,,,,,,,,,,,,,,,,,,,,,,,,,,,,567.9010753999464,None,,,,5112.748109828744,-3.3656304726129247,0.00010085632715373081,0,"[0.7830844372514539, 0.7830844372514539, 0.7830844372514539, 0.7830844372514539]","[1014.4977159988214, 1520.029107356264, 2277.4703686104353, 3412.34997066596]",Perfect_5th,"[3.314424444196705, 5.809690816193903, 0.3938950762819644, -1.0]",False,568.8919190999586,572.2757433999795,572.2757433999795,573.5087671999354,None,0,4.146805759985,5.178444160148501,None,1,,,,,,,,,,,,,,tyrfqt,001,fr,1,0,2022-04-22_11h35.19.106,Cluster,2022.1.1,35.47496905696009,
,,,,4,0,4,0,4,0,4,0,,,frequency,,,,,,,,,,,,,,,,,,,,,,,,,,,,,,,,,,,,,,,,,,,,,,,,,,,,,,,,,,,,,,,,,,,,,,,,,,,,,,,,,,,,,,,,,,,,,,,,,,,,,,,,,,,,,,,,,,574.0913235000335,None,1650620675.7523026,1650620677.2941089,1.5418062210083008,1515.7165665103996,-1.0,4.4233032710320856e-05,1,"[0.4521552049426806, 0.5928239977077481, 0.7701081607566254, 0.5875858057259503]","[7638.7328312833415, 5098.2425092770545, 3402.6686438034267, 2271.008858141757]",Perfect_5th,"[-2.0, -1.6305854542215412, -1.0, 0.3938950762819644]",False,576.6448099000845,579.4832435001153,579.4832435001153,580.7196551999077,['space'],1,3.4528645602986217,None,None,1,,[0.8295849000569433],,,,,,,,,,,,tyrfqt,001,fr,1,0,2022-04-22_11h35.19.106,Cluster,2022.1.1,35.47496905696009,
,,,,4,0,4,0,5,0,5,0,,,frequency,,,,,,,,,,,,,,,,,,,,,,,,,,,,,,,,,,,,,,,,,,,,,,,,,,,,,,,,,,,,,,,,,,,,,,,,,,,,,,,,,,,,,,,,,,,,,,,,,,,,,,,,,,,,,,,,,,580.9304162000772,None,,,,3042.609663068805,-2.6658960208978772,4.330101585714646e-05,1,"[0.4809926703733973, 0.5734036909538226, 0.4647007214950763, 0.6171536620912755]","[1916.7239805569668, 2151.449925259668, 2414.9208899420146, 2710.6570486294077]",Tone,"[2.0, 0.9321212336641782, 0.12274927998099194, -0.03000906409819315]",False,581.9376999998931,584.490184900118,584.490184900118,585.7229339000769,['space'],1,3.1798661600332707,None,None,1,,[0.8638895000331104],,,,,,,,,,,,tyrfqt,001,fr,1,0,2022-04-22_11h35.19.106,Cluster,2022.1.1,35.47496905696009,
,,,,4,0,4,0,6,0,6,0,,,both,,,,,,,,,,,,,,,,,,,,,,,,,,,,,,,,,,,,,,,,,,,,,,,,,,,,,,,,,,,,,,,,,,,,,,,,,,,,,,,,,,,,,,,,,,,,,,,,,,,,,,,,,,,,,,,,,,586.0059845000505,None,1650620687.6628838,1650620689.458194,1.7953102588653564,3482.202253184498,0.0,7.485072584861476e-05,1,"[0.7075572109743804, 0.7075572109743804, 0.7075572109743804, 0.7075572109743804]","[1381.9128799677774, 1741.1011265922498, 2193.6499593892536, 2763.825759935554]",Major_3rd,"[6.208779135391241, 3.9476880217548187, 0.9321212336641782, -0.1909083371422149]",False,588.809399300022,591.9639463999774,591.9639463999774,593.1993837000336,['space'],1,3.8435483204666525,None,None,1,,[0.6323081001173705],,,,,,,,,,,,tyrfqt,001,fr,1,0,2022-04-22_11h35.19.106,Cluster,2022.1.1,35.47496905696009,
,,,,4,0,4,0,7,0,7,0,,,time,,,,,,,,,,,,,,,,,,,,,,,,,,,,,,,,,,,,,,,,,,,,,,,,,,,,,,,,,,,,,,,,,,,,,,,,,,,,,,,,,,,,,,,,,,,,,,,,,,,,,,,,,,,,,,,,,,593.3493566999678,None,,,,177.08271202004775,5.080958210000551,0.0006262632603116758,1,"[0.6336618541789267, 0.6336618541789267, 0.6336618541789267, 0.6336618541789267]","[1345.1247920062212, 189.26880785003985, 130.1330637986724, 3272.451603858392]",None,"[6.146476095889664, 8.2776971649791, 1.0, -0.7195967390694644]",False,594.3537210999057,597.3032098999247,597.3032098999247,598.5368278999813,['space'],1,3.5462460601702332,None,None,1,,[0.6751657000277191],,,,,,,,,,,,tyrfqt,001,fr,1,0,2022-04-22_11h35.19.106,Cluster,2022.1.1,35.47496905696009,
,,,,4,0,4,0,8,0,8,0,,,both,,,,,,,,,,,,,,,,,,,,,,,,,,,,,,,,,,,,,,,,,,,,,,,,,,,,,,,,,,,,,,,,,,,,,,,,,,,,,,,,,,,,,,,,,,,,,,,,,,,,,,,,,,,,,,,,,,598.6191569000948,None,,,,4555.415347134627,-3.919769902670674,7.77904725854584e-05,1,"[0.6436395606121572, 0.6436395606121572, 0.6436395606121572, 0.6436395606121572]","[1807.8177785483974, 2277.707673567314, 2869.731843434539, 3615.635557096794]",Major_3rd,"[3.0, 0.3938950762819644, -0.1909083371422149, -1.4686279785677971]",False,599.6227116000373,602.5743577000685,602.5743577000685,None,['space'],1,3.613461460219696,None,None,1,,[0.23388479999266565],,,,,,,,,,,,tyrfqt,001,fr,1,0,2022-04-22_11h35.19.106,Cluster,2022.1.1,35.47496905696009,
,,,,4,0,4,0,9,0,9,0,,,both,,,,,,,,,,,,,,,,,,,,,,,,,,,,,,,,,,,,,,,,,,,,,,,,,,,,,,,,,,,,,,,,,,,,,,,,,,,,,,,,,,,,,,,,,,,,,,,,,,,,,,,,,,,,,,,,,,603.5206450000405,None,1650620705.182305,1650620707.356074,2.173768997192383,615.5722066724584,2.0,6.7245992777071e-05,1,"[0.49943429733645534, 0.49943429733645534, 0.49943429733645534, 0.49943429733645534]","[1551.1447618337352, 1231.1444133449168, 977.1599684342464, 775.5723809168676]",Major_3rd,"[5.809690816193903, 5.652799643408654, 3.314424444196705, 4.0]",False,606.7547104000114,609.2816989000421,609.2816989000421,610.5158947000746,['space'],1,3.016709220362827,None,None,1,,[0.9240970998071134],,,,,,,,,,,,tyrfqt,001,fr,1,0,2022-04-22_11h35.19.106,Cluster,2022.1.1,35.47496905696009,
,,,,4,0,4,0,10,0,10,0,,,frequency,,,,,,,,,,,,,,,,,,,,,,,,,,,,,,,,,,,,,,,,,,,,,,,,,,,,,,,,,,,,,,,,,,,,,,,,,,,,,,,,,,,,,,,,,,,,,,,,,,,,,,,,,,,,,,,,,,610.7321977000684,None,1650620712.3892312,1650620713.9663007,1.5770695209503174,353.5533905932738,7.0,0.00019837829677229338,1,"[0.5436596795298121, 0.7851596995030862, 0.7878423184775358, 0.4953662361203617]","[1781.7974362806788, 1189.2071150027211, 793.7005259840998, 529.7315471796477]",Perfect_5th,"[3.9476880217548187, 5.0, 3.2260249263326117, 8.89347349739519]",False,613.3197922001127,616.4537710999139,616.4537710999139,None,['space'],1,3.6461711800657213,None,None,1,,[0.27343109995126724],,,,,,,,,,,,tyrfqt,001,fr,1,0,2022-04-22_11h35.19.106,Cluster,2022.1.1,35.47496905696009,
,,,,4,0,4,0,11,0,11,0,,,none,,,,,,,,,,,,,,,,,,,,,,,,,,,,,,,,,,,,,,,,,,,,,,,,,,,,,,,,,,,,,,,,,,,,,,,,,,,,,,,,,,,,,,,,,,,,,,,,,,,,,,,,,,,,,,,,,,617.2704934999347,None,,,,,,,,"[0.41770334800806297, 0.4979364810398106, 0.6420267078231827, 0.6247050008592452]","[3612.4367428238393, 1949.010588347748, 870.138292431263, 132.85780154600306]",None,"[-1.4686279785677971, 2.0, 2.835141011822397, 1.922254749025186]",True,618.2783842000645,620.8620742999483,620.8620742999483,622.0960711000953,None,1,3.211070660268888,4.241929460084066,None,1,,,0,,,,,,,,,,,tyrfqt,001,fr,1,0,2022-04-22_11h35.19.106,Cluster,2022.1.1,35.47496905696009,
,,,,4,0,4,0,12,0,12,0,,,none,,,,,,,,,,,,,,,,,,,,,,,,,,,,,,,,,,,,,,,,,,,,,,,,,,,,,,,,,,,,,,,,,,,,,,,,,,,,,,,,,,,,,,,,,,,,,,,,,,,,,,,,,,,,,,,,,,622.5380079001188,None,,,,3467.492012080987,-3.29370553291234,5.105166264832123e-05,1,"[0.6738355308947417, 0.7142131973963137, 0.7698555339573574, 0.5692952151690849]","[274.2098458420972, 5336.2894996776395, 1260.9551263282906, 794.4945159512126]",None,"[8.0, -1.3539693998841358, 5.652799643408654, 3.2260249263326117]",False,623.5489922000561,626.7345557999797,626.7345557999797,None,['space'],1,3.7450374600011855,None,None,1,,[0.4307275000028312],,,,,,,,,,,,tyrfqt,001,fr,1,0,2022-04-22_11h35.19.106,Cluster,2022.1.1,35.47496905696009,
,,,,4,0,4,0,13,0,13,0,,,time,,,,,,,,,,,,,,,,,,,,,,,,,,,,,,,,,,,,,,,,,,,,,,,,,,,,,,,,,,,,,,,,,,,,,,,,,,,,,,,,,,,,,,,,,,,,,,,,,,,,,,,,,,,,,,,,,,627.7519769000355,None,1650620729.408025,1650620732.3919697,2.9839446544647217,217.63764082403114,-2.0,0.0001833998500082898,1,"[0.6053528125036314, 0.6053528125036314, 0.6053528125036314, 0.6053528125036314]","[2297.201062518765, 3762.441443344087, 169.05251648250186, 1972.915534247374]",None,"[0.3938950762819644, -1.4686279785677971, 6.0, 2.0]",False,631.7453050999902,634.5776645001024,634.5776645001024,None,['space'],1,3.4564818602520972,None,None,1,,[0.3926266999915242],,,,,,,,,,,,tyrfqt,001,fr,1,0,2022-04-22_11h35.19.106,Cluster,2022.1.1,35.47496905696009,
,,,,4,0,4,0,14,0,14,0,,,none,,,,,,,,,,,,,,,,,,,,,,,,,,,,,,,,,,,,,,,,,,,,,,,,,,,,,,,,,,,,,,,,,,,,,,,,,,,,,,,,,,,,,,,,,,,,,,,,,,,,,,,,,,,,,,,,,,635.6216973999981,None,1650620737.281086,1650620739.288613,2.0075271129608154,615.5722066724584,6.0,0.00010657771617266901,1,"[0.5196150631495613, 0.5977648873612016, 0.7723652259677342, 0.5889879301771234]","[2959.505307606999, 7054.848810529709, 3444.650262318157, 167.16954529963846]",None,"[-0.41565361304880266, -1.4208264158412334, -1.0, 6.0]",False,638.6427114999387,641.5496644999366,641.5496644999366,None,['space'],1,3.5124203802552074,None,None,1,,[0.41102849994786084],,,,,,,,,,,,tyrfqt,001,fr,1,0,2022-04-22_11h35.19.106,Cluster,2022.1.1,35.47496905696009,
,,,,4,0,4,0,15,0,15,0,,,frequency,,,,,,,,,,,,,,,,,,,,,,,,,,,,,,,,,,,,,,,,,,,,,,,,,,,,,,,,,,,,,,,,,,,,,,,,,,,,,,,,,,,,,,,,,,,,,,,,,,,,,,,,,,,,,,,,,,642.5976335001178,None,,,,,,,,"[0.6056989814646108, 0.7169869115105367, 0.7539362461395019, 0.5303910077386726]","[2652.8516075136617, 2977.7252492305975, 3342.383582553915, 3751.6987223090878]",Tone,"[-0.03000906409819315, -0.41565361304880266, -1.0, -1.4686279785677971]",True,643.602565200068,646.7211672998965,646.7211672998965,647.955541400006,None,1,3.6449186601676047,4.678875260055065,None,1,,,0,,,,,,,,,,,tyrfqt,001,fr,1,0,2022-04-22_11h35.19.106,Cluster,2022.1.1,35.47496905696009,
,,,,4,0,4,0,16,0,16,0,,,both,,,,,,,,,,,,,,,,,,,,,,,,,,,,,,,,,,,,,,,,,,,,,,,,,,,,,,,,,,,,,,,,,,,,,,,,,,,,,,,,,,,,,,,,,,,,,,,,,,,,,,,,,,,,,,,,,,648.3032072999049,None,,,,6906.5446602355405,-3.5303949681916036,9.883163566614082e-05,1,"[0.7996817923353341, 0.7996817923353341, 0.7996817923353341, 0.7996817923353341]","[4350.8504997348955, 4883.66456382029, 5481.728129561623, 6153.031784582848]",Tone,"[-1.8708373282903583, -1.6305854542215412, -1.099175111788238, -1.0]",False,649.3092555999756,652.7285154000856,652.7285154000856,None,['space'],1,4.217859060270712,None,None,1,,[0.3910201999824494],,,,,,,,,,,,tyrfqt,001,fr,1,0,2022-04-22_11h35.19.106,Cluster,2022.1.1,35.47496905696009,
,,,,4,0,4,0,17,0,17,0,,,none,,,,,,,,,,,,,,,,,,,,,,,,,,,,,,,,,,,,,,,,,,,,,,,,,,,,,,,,,,,,,,,,,,,,,,,,,,,,,,,,,,,,,,,,,,,,,,,,,,,,,,,,,,,,,,,,,,653.9410556000657,None,,,,5656.398102728303,-3.1164168586801693,8.978817946977112e-05,0,"[0.7176682334923338, 0.7471236017625824, 0.6983996462020925, 0.7714842577167748]","[3685.153542197435, 1283.326534752898, 2951.841384702163, 2790.2256620567887]",None,"[-1.4686279785677971, 6.0, -0.41565361304880266, -0.1909083371422149]",False,654.9513890000526,658.1335458001122,658.1335458001122,659.3679357999936,None,0,3.952840160112828,4.97649856028147,None,1,,,,,,,,,,,,,,tyrfqt,001,fr,1,0,2022-04-22_11h35.19.106,Cluster,2022.1.1,35.47496905696009,
,,,,4,0,4,0,18,0,18,0,,,both,,,,,,,,,,,,,,,,,,,,,,,,,,,,,,,,,,,,,,,,,,,,,,,,,,,,,,,,,,,,,,,,,,,,,,,,,,,,,,,,,,,,,,,,,,,,,,,,,,,,,,,,,,,,,,,,,,659.9470999999903,None,1650620761.6036243,1650620763.9616928,2.3580684661865234,125.0,2.0,0.000909850429304992,0,"[0.5939658244777244, 0.5939658244777244, 0.5939658244777244, 0.5939658244777244]","[629.9605249474366, 420.4482076268573, 280.6155120773433, 187.2883846095852]",Perfect_5th,"[7.0, 8.211586807684622, 8.0, 8.0]",False,663.3148004999384,666.142663900042,666.142663900042,667.3785055000335,None,0,3.388285020366311,4.420282720355317,None,1,,,,,,,,,,,,,,tyrfqt,001,fr,1,0,2022-04-22_11h35.19.106,Cluster,2022.1.1,35.47496905696009,
,,,,4,0,4,0,19,0,19,0,,,frequency,,,,,,,,,,,,,,,,,,,,,,,,,,,,,,,,,,,,,,,,,,,,,,,,,,,,,,,,,,,,,,,,,,,,,,,,,,,,,,,,,,,,,,,,,,,,,,,,,,,,,,,,,,,,,,,,,,667.7562762000598,None,,,,6167.400708662902,-3.0324431134414525,8.728795309459724e-05,1,"[0.492399552939154, 0.617185359769474, 0.4133817617959141, 0.614576707877744]","[2447.5345932102277, 3083.7003543314513, 3885.218987990474, 4895.069186420455]",Major_3rd,"[0.12274927998099194, -0.41565361304880266, -1.7450720210032946, -1.6305854542215412]",False,668.7687484999187,671.3149309,671.3149309,None,['space'],1,3.175048660254106,None,None,1,,[0.007641100091859698],,,,,,,,,,,,tyrfqt,001,fr,1,0,2022-04-22_11h35.19.106,Cluster,2022.1.1,35.47496905696009,
,,,,5,0,5,0,0,0,0,0,,,time,,,,,,,,,,,,,,,,,,,,,,,,,,,,,,,,,,,,,,,,,,,,,,,,,,,,,,,,,,,,,,,,,,,,,,,,,,,,,,,,,,,,,,,,,,,,,,,,,,,,,,,,,,,,,,,,,,674.2871842999011,None,,,,,,,,"[0.6970069666730686, 0.6970069666730686, 0.6970069666730686, 0.6970069666730686]","[138.9351167577658, 6161.533147955913, 2735.810612915224, 2531.6587744590456]",None,"[3.0, -1.0, -0.1909083371422149, 0.12274927998099194]",True,675.2680655000731,678.3885345000308,678.3885345000308,679.6243253999855,None,1,3.819745560409501,4.847774860449135,None,1,,,0,,,,,,,,,,,tyrfqt,001,fr,1,0,2022-04-22_11h35.19.106,Cluster,2022.1.1,35.47496905696009,
,,,,5,0,5,0,1,0,1,0,,,frequency,,,,,,,,,,,,,,,,,,,,,,,,,,,,,,,,,,,,,,,,,,,,,,,,,,,,,,,,,,,,,,,,,,,,,,,,,,,,,,,,,,,,,,,,,,,,,,,,,,,,,,,,,,,,,,,,,,680.1354223000817,None,1650620781.790404,1650620783.4375513,1.6471471786499023,125.0,-1.0,0.000644124775846567,0,"[0.5036060893416635, 0.743547099821094, 0.6981398028750261, 0.5014676078225826]","[198.42513149602502, 176.77669529663694, 157.49013123685918, 140.30775603867164]",Tone,"[8.973732267488668, 7.250110335393013, 5.0, 3.0]",False,682.791007099906,685.7616024999879,685.7616024999879,686.9663982999045,None,0,3.4669523204211146,4.4991904203779995,None,1,,,,"{'estimation': [[125.0, -1.3076859989447582], [126.98898505576344, -1.0], [133.9716828170366, -0.008276326403351198], [134.02372354376385, 0.0], [140.37237722846228, 1.0], [143.5872943746293, 1.473609963056166], [146.9866417211238, 2.0], [153.491165163705, 3.0], [153.89305166811442, 3.058551717511732], [160.33515501457876, 4.0], [164.93848884661162, 4.64669066373087], [167.6914681598439, 5.0], [175.59850912937335, 6.0], [176.77669529663666, 6.140117390572066], [185.0841620732505, 7.0], [189.46457081379947, 7.423608135089216], [197.26909092282744, 8.0], [203.0630990890585, 8.40084374449584], [217.63764082403046, 8.991922213244093], [218.30726331578296, 9.0], [233.25824788420132, 9.17314106170129], [246.34738107307632, 9.0], [249.99999999999937, 8.952907014232862], [267.94336563407256, 8.426536241471608], [279.29567331847977, 8.0], [287.17458874925757, 7.711393402909616], [306.78738772997605, 6.999999999999999], [307.78610333622805, 6.964623859630008], [329.87697769322244, 6.30822801601484], [344.48713113388436, 6.0], [353.55339059327247, 5.812730195331841], [378.929141627598, 5.497131556581964], [406.12619817811606, 5.301006079764141], [435.2752816480601, 5.130553829213162], [452.2590261191744, 5.0], [466.5164957684015, 4.892170036816417], [499.99999999999693, 4.532386995627508], [535.8867312681438, 4.03381897472644], [537.8953053245591, 4.0], [574.3491774985143, 3.423403713343083], [600.1255479197391, 3.0], [615.5722066724546, 2.7554263337662284], [659.7539553864432, 2.0922100389849065], [666.3762835949191, 2.0], [707.1067811865431, 1.4532043280518883], [745.3849060990707, 1.0], [757.8582832551941, 0.8552200197537104], [812.2523963562301, 0.2912524898032133], [842.3674612679868, 0.0], [870.5505632961181, -0.261679593032437], [933.0329915368008, -0.7886963800614735], [960.7999321743226, -1.0], [999.9999999999926, -1.2921310010528364], [1071.773462536285, -1.7269051583885393], [1130.5281031988538, -2.0], [1148.698354997026, -2.0846145754531253], [1231.1444133449063, -2.35007904959176], [1319.5079107728832, -2.539969665722892], [1414.2135623730828, -2.699694561332041], [1515.7165665103846, -2.885750521800222], [1561.7089690724968, -3.0], [1624.5047927124563, -3.1522608334524627], [1741.1011265922318, -3.5212026337294104], [1865.028211698999, -4.0], [1866.065983073597, -4.0041120123903555], [1999.9999999999802, -4.574629539545752], [2099.60007536077, -5.0], [2143.5469250725646, -5.185948250577291], [2297.396709994046, -5.7738363466278795], [2366.6623742524794, -6.0], [2462.2888266898062, -6.297381768188678], [2639.01582154576, -6.703306496429736], [2828.427124746159, -6.983596773094173], [2848.418864643543, -7.0], [3031.4331330207615, -7.142610830123669], [3249.0095854249043, -7.194204850472114], [3482.2022531844555, -7.172526065655587], [3732.1319661471844, -7.113748283633878], [3999.9999999999504, -7.051194519880868], [4287.093850145118, -7.01099017758718], [4594.793419988081, -7.008481851728653], [4924.577653379601, -7.04597335109372], [5278.031643091506, -7.112547246600043], [5656.854249492303, -7.186120245500566], [6062.866266041508, -7.237033879436574], [6498.019170849792, -7.232354580458316], [6964.404506368894, -7.140226112237132], [7301.9282327802775, -7.0], [7464.2639322943505, -6.934886443232771], [7999.999999999882, -6.6145169988832775]], 'plus_line': [[125.0, -4.339806584216619], [126.97310406666034, -4.0], [132.82319251133893, -3.0], [133.9716828170366, -2.8221246003715046], [139.12882174394537, -2.0], [143.5872943746293, -1.270644530048568], [145.41653104025866, -1.0], [151.81083849104454, 0.0], [153.89305166811442, 0.31743816660086743], [158.83179741316636, 1.0], [164.93848884661162, 1.9083305629339689], [165.6715195725987, 2.0], [173.50501066215332, 3.0], [176.77669529663666, 3.4150395480720883], [182.2625048061589, 4.0], [189.46457081379936, 4.770622320923011], [192.27059185621323, 5.0], [203.0630990890585, 5.837253085651855], [206.3792636417035, 6.0], [217.6376408240306, 6.485001406883983], [233.25824788420147, 6.671353607802086], [249.99999999999937, 6.416628043688018], [263.29808497537124, 6.0], [267.94336563407256, 5.8418415824261585], [287.1745887492579, 5.104300944807038], [289.999788179958, 5.0], [307.78610333622805, 4.3396053153396466], [319.5166275894711, 4.0], [329.87697769322244, 3.689558809952335], [353.55339059327247, 3.2012875939946976], [368.3400442835531, 3.0], [378.929141627598, 2.840188542834231], [406.12619817811606, 2.5641077763225226], [435.2752816480601, 2.3317159171262087], [466.5164957684015, 2.071519447394337], [473.2052479816568, 2.0], [499.9999999999975, 1.694035555729457], [535.8867312681438, 1.227947610957456], [551.111369438879, 1.0], [574.3491774985143, 0.6410170853775752], [615.5722066724546, 0.011985055101136233], [616.3458621365602, 0.0], [659.7539553864432, -0.6822967527058654], [683.1678529680383, -1.0], [707.1067811865431, -1.3378252977721625], [757.8582832551941, -1.9159469714133297], [766.3061029389775, -2.0], [812.2523963562301, -2.470361293986823], [870.5505632961181, -2.9508403203989664], [876.6021840550403, -3.0], [933.0329915368008, -3.473585010737292], [999.9999999999926, -3.961812728193988], [1005.7063025682354, -4.0], [1071.773462536285, -4.469690947996234], [1148.698354997026, -4.852665889234677], [1196.8660132575906, -5.0], [1231.1444133449063, -5.115616944965509], [1319.5079107728832, -5.259171030879525], [1414.2135623730828, -5.34348657414712], [1515.7165665103846, -5.482822246494115], [1624.5047927124563, -5.76118671917575], [1686.6495526776791, -6.0], [1741.1011265922318, -6.23183468869345], [1866.065983073597, -6.8319914449173424], [1900.1294718779, -7.0], [1999.9999999999802, -7.520762656428527], [2105.661892226054, -8.0], [2143.5469250725646, -8.181399845135928], [2297.396709994046, -8.771532354022431], [2379.464720873631, -9.0], [2462.2888266898062, -9.240988321891873], [2639.01582154576, -9.563824903469708], [2828.427124746159, -9.73851178002732], [3031.4331330207615, -9.81022863277753], [3249.0095854249043, -9.821021801435961], [3482.202253184451, -9.803361273815305], [3732.1319661471844, -9.778622843337294], [3999.999999999946, -9.761641399161107], [4287.093850145118, -9.763423225230852], [4594.793419988081, -9.78902287342223], [4924.577653379601, -9.834597505096813], [5278.031643091506, -9.887313940664006], [5656.854249492303, -9.927554571269116], [6062.866266041508, -9.932093715736842], [6498.019170849792, -9.880148383765128], [6964.404506368894, -9.764253544304378], [7464.2639322943505, -9.600276163777815], [7999.999999999882, -9.424244157806317]], 'minus_line': [[125.0, 1.6214275886197411], [127.80484965561298, 2.0], [133.9716828170366, 2.7493887390862044], [135.55366374580785, 3.0], [142.1356591104018, 4.0], [143.5872943746293, 4.200128443355577], [148.3649484881129, 5.0], [153.89305166811442, 5.818201520563889], [155.08549343989543, 6.0], [161.5396192562362, 7.0], [164.93848884661162, 7.4623472428248965], [168.98538394500497, 8.0], [176.77669529663666, 8.933190895458699], [177.42736321112616, 9.0], [187.53792878727234, 10.0], [189.46457081379947, 10.174196619788464], [202.10818907940512, 11.0], [203.0630990890585, 11.060305809566024], [217.63764082403046, 11.600589585424846], [233.25824788420132, 11.74108680766535], [249.99999999999937, 11.537367499763963], [267.8707635908474, 10.999999999999998], [267.9433656340722, 10.998029702574096], [287.1745887492579, 10.30183841825843], [294.7231255037676, 10.0], [307.78610333622805, 9.525910669378945], [324.0416478122815, 9.0], [329.87697769322244, 8.828165082437408], [353.55339059327247, 8.356934177497111], [378.929141627598, 8.08112314370163], [397.229736781257, 8.0], [406.12619817811606, 7.966072345669465], [435.2752816480601, 7.885213737828537], [466.5164957684015, 7.705443893503547], [499.9999999999975, 7.3434997329805665], [521.0436631966411, 7.0], [535.8867312681438, 6.786824555273997], [574.3491774985143, 6.1155922394885], [580.5298812548659, 6.0], [615.5722066724546, 5.418307445597079], [641.2914663182877, 5.0], [659.7539553864432, 4.7269417746295375], [707.1067811865431, 4.0841452076912415], [713.5975241734836, 4.0], [757.8582832551941, 3.4921805220936597], [800.6360845339796, 3.0], [812.2523963562301, 2.878998359272625], [870.5505632961181, 2.3012528415145375], [902.1429154047729, 2.0], [933.0329915368008, 1.7384286630205947], [999.9999999999926, 1.2664331903065702], [1047.0172541406353, 1.0], [1071.773462536285, 0.8740452584682791], [1148.698354997026, 0.5914592266817524], [1231.1444133449063, 0.348021335185673], [1319.5079107728832, 0.11153973336661482], [1361.9966701874946, 0.0], [1414.2135623730846, -0.11316057431571142], [1515.7165665103846, -0.32275637333035023], [1624.5047927124563, -0.5529784428164913], [1741.1011265922318, -0.8513603653553519], [1786.2229430094203, -1.0], [1866.065983073597, -1.2344472489941045], [1999.9999999999802, -1.722779773516189], [2064.558452804088, -2.0], [2143.5469250725646, -2.3073061184333987], [2297.396709994046, -2.9315194588621596], [2314.811461392213, -3.0], [2462.2888266898062, -3.503679433339131], [2630.44536075998, -4.0], [2639.015821545763, -4.022287632771512], [2828.427124746159, -4.374074352627501], [3031.4331330207615, -4.586584494924242], [3249.0095854249043, -4.658102337378167], [3482.2022531844555, -4.6178129422148135], [3732.1319661471844, -4.520240294540546], [3999.9999999999504, -4.418617847650022], [4287.093850145118, -4.349663721361518], [4594.793419988081, -4.332617116231256], [4924.577653379601, -4.371758705280533], [5278.031643091506, -4.457763778115686], [5656.854249492303, -4.568636317227209], [6062.866266041501, -4.67070543032642], [6498.019170849792, -4.7182846936634], [6964.404506368894, -4.653835507205617], [7464.2639322943505, -4.4183861332729695], [7958.553330555563, -4.0], [7999.999999999892, -3.9598741263299724]]}",,,,,,,,,,tyrfqt,001,fr,1,0,2022-04-22_11h35.19.106,Cluster,2022.1.1,35.47496905696009,
,,,,5,0,5,0,2,0,2,0,,,none,,,,,,,,,,,,,,,,,,,,,,,,,,,,,,,,,,,,,,,,,,,,,,,,,,,,,,,,,,,,,,,,,,,,,,,,,,,,,,,,,,,,,,,,,,,,,,,,,,,,,,,,,,,,,,,,,,687.3108949000016,None,1650620788.9664526,1650620791.0069237,2.040471076965332,8000.0,-2.0,0.00014420157515633036,0,"[0.46124188738519684, 0.7172056875334301, 0.7601465610930719, 0.6607429949959793]","[4081.435436537225, 318.9269637148596, 1923.3083651621168, 1489.0196610961395]",None,"[-1.7450720210032946, 7.234734021061623, 2.0, 6.0]",False,690.3605981001165,693.3359058999922,693.3359058999922,694.5374431000091,None,0,3.6385097003076226,4.659889700356871,None,1,,,,,,,,,,,,,,tyrfqt,001,fr,1,0,2022-04-22_11h35.19.106,Cluster,2022.1.1,35.47496905696009,
,,,,5,0,5,0,3,0,3,0,,,time,,,,,,,,,,,,,,,,,,,,,,,,,,,,,,,,,,,,,,,,,,,,,,,,,,,,,,,,,,,,,,,,,,,,,,,,,,,,,,,,,,,,,,,,,,,,,,,,,,,,,,,,,,,,,,,,,,695.0350073000882,None,,,,125.44994709722046,-1.4221958242828523,0.0006101637005536372,0,"[0.5510211332422922, 0.5510211332422922, 0.5510211332422922, 0.5510211332422922]","[528.7211870442289, 440.8822396523769, 364.42118890334746, 603.4039176149478]",None,"[9.0, 8.715675910554989, 7.337220816308567, 7.334255130632958]",False,696.0293117999099,698.7027098000981,698.7027098000981,699.9113477999344,None,0,3.2393934603314847,4.271581060253084,None,1,,,,,,,,,,,,,,tyrfqt,001,fr,1,0,2022-04-22_11h35.19.106,Cluster,2022.1.1,35.47496905696009,
,,,,5,0,5,0,4,0,4,0,,,none,,,,,,,,,,,,,,,,,,,,,,,,,,,,,,,,,,,,,,,,,,,,,,,,,,,,,,,,,,,,,,,,,,,,,,,,,,,,,,,,,,,,,,,,,,,,,,,,,,,,,,,,,,,,,,,,,,700.3178832000121,None,,,,3277.135200925115,-3.0,5.044181510940428e-05,0,"[0.4489980634046719, 0.4890455681560544, 0.4761089041020137, 0.44793624082400757]","[378.85932431793077, 182.87960304563157, 3385.140237150174, 2608.438272944807]",None,"[7.693636570531561, 8.0, -1.0, 0.0]",False,701.3225875999779,703.7731594999786,703.7731594999786,705.0073462000582,None,0,2.8791380601469427,3.910953560145572,None,1,,,,,,,,,,,,,,tyrfqt,001,fr,1,0,2022-04-22_11h35.19.106,Cluster,2022.1.1,35.47496905696009,
,,,,5,0,5,0,5,0,5,0,,,both,,,,,,,,,,,,,,,,,,,,,,,,,,,,,,,,,,,,,,,,,,,,,,,,,,,,,,,,,,,,,,,,,,,,,,,,,,,,,,,,,,,,,,,,,,,,,,,,,,,,,,,,,,,,,,,,,,705.2583641998935,None,,,,,,,,"[0.6375368154367513, 0.6375368154367513, 0.6375368154367513, 0.6375368154367513]","[4552.988219746406, 3038.7550656420885, 2028.1256843400693, 1353.6114963614996]",Perfect_5th,"[-1.825371943492379, -0.41565361304880266, 1.7287990404199483, 6.146476095889664]",True,706.2703025999945,709.2120407999028,709.2120407999028,710.4457700999919,None,1,3.5657936602365226,4.5892394601833075,['space'],0,[-3.0191497998312116],,0,,,,,,,,,,,tyrfqt,001,fr,1,0,2022-04-22_11h35.19.106,Cluster,2022.1.1,35.47496905696009,
,,,,5,0,5,0,6,0,6,0,,,time,,,,,,,,,,,,,,,,,,,,,,,,,,,,,,,,,,,,,,,,,,,,,,,,,,,,,,,,,,,,,,,,,,,,,,,,,,,,,,,,,,,,,,,,,,,,,,,,,,,,,,,,,,,,,,,,,,710.8788151000626,None,1650620812.5379448,1650620815.0819676,2.544022798538208,435.2752816480623,-3.0,5.2920307191259255e-05,0,"[0.42579394184524094, 0.42579394184524094, 0.42579394184524094, 0.42579394184524094]","[940.5522889408984, 255.40910622002355, 1526.7797495184739, 826.7369909560559]",None,"[2.8793151476970755, 8.840291789389005, 5.809690816193903, 3.2260249263326117]",False,714.4371635999996,716.7516457999591,716.7516457999591,717.9853676999919,None,0,2.752132360357791,3.7697509604040533,None,1,,,,,,,,,,,,,,tyrfqt,001,fr,1,0,2022-04-22_11h35.19.106,Cluster,2022.1.1,35.47496905696009,
,,,,5,0,5,0,7,0,7,0,,,both,,,,,,,,,,,,,,,,,,,,,,,,,,,,,,,,,,,,,,,,,,,,,,,,,,,,,,,,,,,,,,,,,,,,,,,,,,,,,,,,,,,,,,,,,,,,,,,,,,,,,,,,,,,,,,,,,,718.2192444000393,None,,,,1331.1357662292874,3.894605313449354,8.219535796111306e-05,1,"[0.6279334595489043, 0.6279334595489043, 0.6279334595489043, 0.6279334595489043]","[3354.2519442804405, 2662.2715324585747, 2113.046315624866, 1677.1259721402203]",Major_3rd,"[-1.0, -0.03000906409819315, 1.0, 5.0]",False,719.2244029000867,722.1448077999521,722.1448077999521,None,['space'],1,3.5275353600736707,None,['space'],0,[-2.7191609998699278],[0.33275529998354614],,,,,,,,,,,,tyrfqt,001,fr,1,0,2022-04-22_11h35.19.106,Cluster,2022.1.1,35.47496905696009,
,,,,5,0,5,0,8,0,8,0,,,none,,,,,,,,,,,,,,,,,,,,,,,,,,,,,,,,,,,,,,,,,,,,,,,,,,,,,,,,,,,,,,,,,,,,,,,,,,,,,,,,,,,,,,,,,,,,,,,,,,,,,,,,,,,,,,,,,,723.1176565999631,None,1650620824.7725194,1650620826.9368544,2.164335012435913,125.0,3.0,0.001020868972334765,1,"[0.5805782597817912, 0.4891867728881578, 0.6103230663046169, 0.5932107362853292]","[661.656030438572, 415.78167017106347, 1828.0116903985804, 5999.283560062641]",None,"[6.218559537063877, 8.211586807684622, 3.0, -1.0]",False,726.2914009001106,728.9876168000046,728.9876168000046,None,['space'],1,3.2906464801635593,None,None,1,,[0.32837490015663207],,,,,,,,,,,,tyrfqt,001,fr,1,0,2022-04-22_11h35.19.106,Cluster,2022.1.1,35.47496905696009,
,,,,5,0,5,0,9,0,9,0,,,time,,,,,,,,,,,,,,,,,,,,,,,,,,,,,,,,,,,,,,,,,,,,,,,,,,,,,,,,,,,,,,,,,,,,,,,,,,,,,,,,,,,,,,,,,,,,,,,,,,,,,,,,,,,,,,,,,,729.9520443000365,None,,,,4110.398670079432,-3.913313552744004,5.833477957255329e-05,1,"[0.6670919329385852, 0.6670919329385852, 0.6670919329385852, 0.6670919329385852]","[4469.448409588645, 968.890916199042, 3764.832927537241, 1424.465636171409]",None,"[-1.825371943492379, 3.0, -1.4686279785677971, 6.208779135391241]",False,730.9585233998951,733.9773369000759,733.9773369000759,None,['space'],1,3.6860965602099895,None,None,1,,[0.4410703999456018],,,,,,,,,,,,tyrfqt,001,fr,1,0,2022-04-22_11h35.19.106,Cluster,2022.1.1,35.47496905696009,
,,,,5,0,5,0,10,0,10,0,,,none,,,,,,,,,,,,,,,,,,,,,,,,,,,,,,,,,,,,,,,,,,,,,,,,,,,,,,,,,,,,,,,,,,,,,,,,,,,,,,,,,,,,,,,,,,,,,,,,,,,,,,,,,,,,,,,,,,735.1217761998996,None,,,,1746.649851912369,1.743039101522775,7.745527361888651e-05,0,"[0.7801332519495457, 0.5281857647695518, 0.6109484078570344, 0.42463271224842686]","[1200.752094539623, 628.0874075546359, 4496.679078806965, 5807.881990220965]",None,"[5.652799643408654, 7.0, -1.825371943492379, -1.099175111788238]",False,736.1225527999923,739.0820094998926,739.0820094998926,740.3094347000588,None,0,3.3550555598922074,4.366719460114837,None,1,,,,,,,,,,,,,,tyrfqt,001,fr,1,0,2022-04-22_11h35.19.106,Cluster,2022.1.1,35.47496905696009,
,,,,5,0,5,0,11,0,11,0,,,time,,,,,,,,,,,,,,,,,,,,,,,,,,,,,,,,,,,,,,,,,,,,,,,,,,,,,,,,,,,,,,,,,,,,,,,,,,,,,,,,,,,,,,,,,,,,,,,,,,,,,,,,,,,,,,,,,,740.5099553000182,None,,,,,,,,"[0.7614849503242314, 0.7614849503242314, 0.7614849503242314, 0.7614849503242314]","[481.5742234528673, 2632.9205581193987, 239.69187418678106, 2873.5500887014714]",None,"[9.088737075222543, -0.03000906409819315, 9.0, -0.1909083371422149]",True,741.513276200043,744.8321706000715,744.8321706000715,746.0556755000725,None,1,4.079710660036653,5.081929560052231,None,1,,,0,,,,,,,,,,,tyrfqt,001,fr,1,0,2022-04-22_11h35.19.106,Cluster,2022.1.1,35.47496905696009,
,,,,5,0,5,0,12,0,12,0,,,time,,,,,,,,,,,,,,,,,,,,,,,,,,,,,,,,,,,,,,,,,,,,,,,,,,,,,,,,,,,,,,,,,,,,,,,,,,,,,,,,,,,,,,,,,,,,,,,,,,,,,,,,,,,,,,,,,,746.6122469000984,None,1650620848.2581627,1650620850.8295872,2.5714244842529297,615.5722066724584,1.0,5.99330541482996e-05,1,"[0.7790587288008897, 0.7790587288008897, 0.7790587288008897, 0.7790587288008897]","[5676.34662963284, 6973.087999278456, 4954.864950698817, 138.3345709712506]",None,"[-1.099175111788238, -1.4208264158412334, -1.6305854542215412, 3.0]",False,750.235902100103,753.6025465999264,753.6025465999264,None,['space'],1,4.1550326202996075,None,None,1,,[0.26452350011095405],,,,,,,,,,,,tyrfqt,001,fr,1,0,2022-04-22_11h35.19.106,Cluster,2022.1.1,35.47496905696009,
,,,,5,0,5,0,13,0,13,0,,,both,,,,,,,,,,,,,,,,,,,,,,,,,,,,,,,,,,,,,,,,,,,,,,,,,,,,,,,,,,,,,,,,,,,,,,,,,,,,,,,,,,,,,,,,,,,,,,,,,,,,,,,,,,,,,,,,,,754.6813240000047,None,1650620856.3216097,1650620858.062909,1.7412991523742676,1741.101126592249,-1.0,5.6257269685433714e-05,0,"[0.4467239879814444, 0.4467239879814444, 0.4467239879814444, 0.4467239879814444]","[690.9564399838887, 870.5505632961249, 1096.8249796946268, 1381.912879967777]",Major_3rd,"[5.059888243962505, 2.835141011822397, 4.059225165054532, 6.208779135391241]",False,757.4191324999556,759.7924466999248,759.7924466999248,761.0049397998955,None,0,2.839898200239986,3.8688409002497792,None,1,,,,,,,,,,,,,,tyrfqt,001,fr,1,0,2022-04-22_11h35.19.106,Cluster,2022.1.1,35.47496905696009,
,,,,5,0,5,0,14,0,14,0,,,time,,,,,,,,,,,,,,,,,,,,,,,,,,,,,,,,,,,,,,,,,,,,,,,,,,,,,,,,,,,,,,,,,,,,,,,,,,,,,,,,,,,,,,,,,,,,,,,,,,,,,,,,,,,,,,,,,,761.2914334000088,None,,,,398.1346914811275,5.96282744723499,0.0001530558343546823,0,"[0.5104640813901646, 0.5104640813901646, 0.5104640813901646, 0.5104640813901646]","[2321.1829341690477, 132.8169360560288, 187.88917102062362, 129.45162523442505]",None,"[0.3938950762819644, 1.922254749025186, 8.2776971649791, 1.0]",False,762.2838411999401,764.8475518999621,764.8475518999621,766.0684690000489,None,0,3.0829363600350916,4.108502160059288,['space'],0,[-3.166092000203207],,,,,,,,,,,,,tyrfqt,001,fr,1,0,2022-04-22_11h35.19.106,Cluster,2022.1.1,35.47496905696009,
,,,,5,0,5,0,15,0,15,0,,,both,,,,,,,,,,,,,,,,,,,,,,,,,,,,,,,,,,,,,,,,,,,,,,,,,,,,,,,,,,,,,,,,,,,,,,,,,,,,,,,,,,,,,,,,,,,,,,,,,,,,,,,,,,,,,,,,,,766.4185798999388,None,,,,2975.4427047608165,-2.6658960208978772,4.1457100185201016e-05,1,"[0.7714910227105563, 0.7714910227105563, 0.7714910227105563, 0.7714910227105563]","[7497.645792968579, 5950.885409521634, 4723.220879608425, 3748.8228964842892]",Major_3rd,"[-2.0, -1.0, -1.825371943492379, -1.4686279785677971]",False,767.4284097999334,770.7684470000677,770.7684470000677,None,['space'],1,4.1089501599781215,None,None,1,,[0.39792060013860464],,,,,,,,,,,,tyrfqt,001,fr,1,0,2022-04-22_11h35.19.106,Cluster,2022.1.1,35.47496905696009,
,,,,5,0,5,0,16,0,16,0,,,time,,,,,,,,,,,,,,,,,,,,,,,,,,,,,,,,,,,,,,,,,,,,,,,,,,,,,,,,,,,,,,,,,,,,,,,,,,,,,,,,,,,,,,,,,,,,,,,,,,,,,,,,,,,,,,,,,,771.9816036999691,None,1650620873.6251805,1650620877.7328384,4.1076579093933105,176.7766952966369,-4.0,0.00022084830614773677,0,"[0.7606459291670729, 0.7606459291670729, 0.7606459291670729, 0.7606459291670729]","[6021.437798862995, 880.5020999740344, 2418.811523676063, 136.2314588217239]",None,"[-1.0, 2.835141011822397, 0.12274927998099194, 2.0]",False,777.0896781000774,780.4125463999808,780.4125463999808,781.6124176001176,None,0,4.077570660505444,5.094759360421449,None,1,,,,,,,,,,,,,,tyrfqt,001,fr,1,0,2022-04-22_11h35.19.106,Cluster,2022.1.1,35.47496905696009,
,,,,5,0,5,0,17,0,17,0,,,none,,,,,,,,,,,,,,,,,,,,,,,,,,,,,,,,,,,,,,,,,,,,,,,,,,,,,,,,,,,,,,,,,,,,,,,,,,,,,,,,,,,,,,,,,,,,,,,,,,,,,,,,,,,,,,,,,,782.1997887999751,None,,,,,,,,"[0.46972035578999094, 0.577733463690659, 0.5234707918175262, 0.771539704627777]","[1093.157393426291, 4053.2898239562064, 3301.867191971855, 6236.001769720937]",None,"[4.059225165054532, -1.7450720210032946, -0.7195967390694644, -1.0]",True,783.200644500088,785.8028762999456,785.8028762999456,787.0210329000838,['space'],0,3.3780370601452887,None,None,1,,[0.7941235001198947],0,,,,,,,,,,,tyrfqt,001,fr,1,0,2022-04-22_11h35.19.106,Cluster,2022.1.1,35.47496905696009,
