practice.thisRepN,practice.thisTrialN,practice.thisN,practice.thisIndex,trials.thisRepN,trials.thisTrialN,trials.thisN,trials.thisIndex,blank_txt.started,blank_txt.stopped,practice_frequency,practice_level,psychopy_volume,tProbe.started,tProbe.stopped,tFeedback.keys,tFeedback.corr,tFeedback.started,tFeedback.stopped,tToo_early.keys,tToo_early.corr,tToo_early.started,tToo_early.stopped,tToo_late.keys,tToo_late.corr,tToo_late.rt,tToo_late.started,tToo_late.stopped,you_done_goofed.started,you_done_goofed.stopped,tFeedback.rt,Init_phase,Frequency,Level,Psychopy_Volume,Catch trial,probe.started,probe.stopped,feedback.keys,feedback.corr,feedback.rt,feedback.started,feedback.stopped,too_late.keys,too_late.corr,too_late.started,too_late.stopped,too_late.rt,Audiogram,participant,session,Language (english or french),Tone duration (ms),date,expName,psychopyVersion,frameRate,
0,0,0,0,,,,,33.40082410001196,None,567,40,0.006099267302654233,1.0161130666965619,None,None,0,35.42105420003645,36.42236510000657,None,1,34.4125866999384,35.42105420003645,['space'],0,[0.8197627000045031],36.42236510000657,None,37.47051549993921,None,,,,,,,,,,,,,,,,,,,,bihhjl,001,fr,200,2022-06-23_11h00.37.026,Bayesian,2022.1.1,None,
1,0,1,0,,,,,,,234,40,0.019882976039061955,1.0095877666026354,None,['space'],1,44.32683909998741,45.33132230001502,None,1,43.31105200003367,44.32683909998741,None,1,,45.33132230001502,None,46.364904499961995,None,[0.4914110000245273],,,,,,,,,,,,,,,,,,,bihhjl,001,fr,200,2022-06-23_11h00.37.026,Bayesian,2022.1.1,None,
2,0,2,0,,,,,,,2345,40,0.008245949202640053,1.0078611668432131,None,['space'],1,52.372020500013605,53.40241270000115,None,1,51.37290990003385,52.372020500013605,None,1,,53.40241270000115,None,54.43416609999258,None,[0.5182368999812752],,,,,,,,,,,,,,,,,,,bihhjl,001,fr,200,2022-06-23_11h00.37.026,Bayesian,2022.1.1,None,
,,,,0,0,0,0,65.03592729999218,None,,,,,,,,,,,,,,,,,,,,,,"{'x': [], 'y': [], 'is_init_phase': True, 'is_exam_finished': False, 'threshold_uncertainty_db': 6}",1000,60,0.0440524436504007,False,0.005229800008237362,None,['space'],1,[0.4047982000047341],66.1251405000221,67.13552410004195,None,1,67.13552410004195,None,,,bihhjl,001,fr,200,2022-06-23_11h00.37.026,Bayesian,2022.1.1,None,
,,,,1,0,1,0,,,,,,,,,,,,,,,,,,,,,,,,"{'x': [[1000, 60]], 'y': [[1]], 'audiogram': {}, 'is_init_phase': True, 'is_exam_finished': False, 'threshold_uncertainty_db': 6}",1000,40,0.004405244365040069,False,0.0010845332872122526,0.18492783326655626,['space'],1,[0.5192854999331757],70.2114164000377,71.2186860999791,None,1,71.2186860999791,70.2114164000377,,,bihhjl,001,fr,200,2022-06-23_11h00.37.026,Bayesian,2022.1.1,None,
,,,,2,0,2,0,,,,,,,,,,,,,,,,,,,,,,,,"{'x': [[1000, 60], [1000, 40]], 'y': [[1], [1]], 'audiogram': {}, 'is_init_phase': True, 'is_exam_finished': False, 'threshold_uncertainty_db': 6}",1000,20,0.0004405244365040069,False,0.005421800073236227,0.19325090001802891,None,0,,73.24499479995575,74.25426159997005,None,1,74.25426159997005,73.24499479995575,,,bihhjl,001,fr,200,2022-06-23_11h00.37.026,Bayesian,2022.1.1,None,
,,,,3,0,3,0,,,,,,,,,,,,,,,,,,,,,,,,"{'x': [[1000, 60], [1000, 40], [1000, 20]], 'y': [[1], [1], [-1]], 'audiogram': {}, 'is_init_phase': True, 'is_exam_finished': False, 'threshold_uncertainty_db': 6}",,,,True,0.011001933249644935,None,None,0,,76.42720749997534,77.44844399997965,None,1,77.44844399997965,76.42720749997534,,,bihhjl,001,fr,200,2022-06-23_11h00.37.026,Bayesian,2022.1.1,None,
,,,,4,0,4,0,,,,,,,,,,,,,,,,,,,,,,,,"{'x': [[1000, 60], [1000, 40], [1000, 20]], 'y': [[1], [1], [-1]], 'audiogram': {}, 'is_init_phase': True, 'is_exam_finished': False, 'threshold_uncertainty_db': 6}",1500,30,0.001527460556607757,False,0.002503099967725575,None,None,0,,79.03863349999301,80.04216189996805,None,1,80.04216189996805,79.03863349999301,,,bihhjl,001,fr,200,2022-06-23_11h00.37.026,Bayesian,2022.1.1,None,
,,,,5,0,5,0,,,,,,,,,,,,,,,,,,,,,,,,"{'x': [[1000, 60], [1000, 40], [1000, 20], [1500, 30]], 'y': [[1], [1], [-1], [-1]], 'audiogram': {}, 'is_init_phase': True, 'is_exam_finished': False, 'threshold_uncertainty_db': 6}",1500,50,0.01527460556607757,False,0.007231699884869158,None,['space'],1,[0.3820886999601498],82.66860169998836,83.6727711999556,None,1,83.6727711999556,82.66860169998836,,,bihhjl,001,fr,200,2022-06-23_11h00.37.026,Bayesian,2022.1.1,None,
,,,,6,0,6,0,,,,,,,,,,,,,,,,,,,,,,,,"{'x': [[1000, 60], [1000, 40], [1000, 20], [1500, 30], [1500, 50]], 'y': [[1], [1], [-1], [-1], [1]], 'audiogram': {}, 'is_init_phase': True, 'is_exam_finished': False, 'threshold_uncertainty_db': 6}",2000,30,0.0023657562948074026,False,0.010351700009778142,None,None,0,,85.66788369999267,86.67196059995331,None,1,86.67196059995331,85.66788369999267,,,bihhjl,001,fr,200,2022-06-23_11h00.37.026,Bayesian,2022.1.1,None,
,,,,7,0,7,0,,,,,,,,,,,,,,,,,,,,,,,,"{'x': [[1000, 60], [1000, 40], [1000, 20], [1500, 30], [1500, 50], [2000, 30]], 'y': [[1], [1], [-1], [-1], [1], [-1]], 'audiogram': {}, 'is_init_phase': True, 'is_exam_finished': False, 'threshold_uncertainty_db': 6}",,,,True,0.011889833258464932,None,None,0,,88.1562068000203,89.17966309993062,None,1,89.17966309993062,88.1562068000203,,,bihhjl,001,fr,200,2022-06-23_11h00.37.026,Bayesian,2022.1.1,None,
,,,,8,0,8,0,,,,,,,,,,,,,,,,,,,,,,,,"{'x': [[1000, 60], [1000, 40], [1000, 20], [1500, 30], [1500, 50], [2000, 30]], 'y': [[1], [1], [-1], [-1], [1], [-1]], 'audiogram': {}, 'is_init_phase': True, 'is_exam_finished': False, 'threshold_uncertainty_db': 6}",2000,50,0.02365756294807403,False,0.0036239000037312508,None,['space'],1,[0.32658919994719326],91.51489180000499,92.53136499994434,None,1,92.53136499994434,91.51489180000499,,,bihhjl,001,fr,200,2022-06-23_11h00.37.026,Bayesian,2022.1.1,None,
,,,,9,0,9,0,,,,,,,,,,,,,,,,,,,,,,,,"{'x': [[1000, 60], [1000, 40], [1000, 20], [1500, 30], [1500, 50], [2000, 30], [2000, 50]], 'y': [[1], [1], [-1], [-1], [1], [-1], [1]], 'audiogram': {}, 'is_init_phase': True, 'is_exam_finished': False, 'threshold_uncertainty_db': 6}",3000,30,0.001733684252262658,False,0.0040972999995574355,None,None,0,,94.80483869998716,95.8187710000202,None,1,95.8187710000202,94.80483869998716,,,bihhjl,001,fr,200,2022-06-23_11h00.37.026,Bayesian,2022.1.1,None,
,,,,10,0,10,0,,,,,,,,,,,,,,,,,,,,,,,,"{'x': [[1000, 60], [1000, 40], [1000, 20], [1500, 30], [1500, 50], [2000, 30], [2000, 50], [3000, 30]], 'y': [[1], [1], [-1], [-1], [1], [-1], [1], [-1]], 'audiogram': {}, 'is_init_phase': True, 'is_exam_finished': False, 'threshold_uncertainty_db': 6}",3000,50,0.017336842522626576,False,0.006809400045312941,None,['space'],1,[0.3277589000063017],98.55433890002314,99.57026900001802,None,1,99.57026900001802,98.55433890002314,,,bihhjl,001,fr,200,2022-06-23_11h00.37.026,Bayesian,2022.1.1,None,
,,,,11,0,11,0,,,,,,,,,,,,,,,,,,,,,,,,"{'x': [[1000, 60], [1000, 40], [1000, 20], [1500, 30], [1500, 50], [2000, 30], [2000, 50], [3000, 30], [3000, 50]], 'y': [[1], [1], [-1], [-1], [1], [-1], [1], [-1], [1]], 'audiogram': {}, 'is_init_phase': True, 'is_exam_finished': False, 'threshold_uncertainty_db': 6}",4000,30,0.0026544222211549416,False,0.008636799990199506,None,None,0,,101.10609380004462,102.12231809995137,None,1,102.12231809995137,101.10609380004462,,,bihhjl,001,fr,200,2022-06-23_11h00.37.026,Bayesian,2022.1.1,None,
,,,,12,0,12,0,,,,,,,,,,,,,,,,,,,,,,,,"{'x': [[1000, 60], [1000, 40], [1000, 20], [1500, 30], [1500, 50], [2000, 30], [2000, 50], [3000, 30], [3000, 50], [4000, 30]], 'y': [[1], [1], [-1], [-1], [1], [-1], [1], [-1], [1], [-1]], 'audiogram': {}, 'is_init_phase': True, 'is_exam_finished': False, 'threshold_uncertainty_db': 6}",4000,50,0.02654422221154942,False,0.009502199944108725,None,['space'],1,[0.2611958000343293],104.67723649996333,105.68848479993176,None,1,105.68848479993176,104.67723649996333,,,bihhjl,001,fr,200,2022-06-23_11h00.37.026,Bayesian,2022.1.1,None,
,,,,13,0,13,0,,,,,,,,,,,,,,,,,,,,,,,,"{'x': [[1000, 60], [1000, 40], [1000, 20], [1500, 30], [1500, 50], [2000, 30], [2000, 50], [3000, 30], [3000, 50], [4000, 30], [4000, 50]], 'y': [[1], [1], [-1], [-1], [1], [-1], [1], [-1], [1], [-1], [1]], 'audiogram': {}, 'is_init_phase': True, 'is_exam_finished': False, 'threshold_uncertainty_db': 6}",,,,True,0.011323633370921016,None,None,0,,106.81632129999343,107.82307579996996,None,1,107.82307579996996,106.81632129999343,,,bihhjl,001,fr,200,2022-06-23_11h00.37.026,Bayesian,2022.1.1,None,
,,,,14,0,14,0,,,,,,,,,,,,,,,,,,,,,,,,"{'x': [[1000, 60], [1000, 40], [1000, 20], [1500, 30], [1500, 50], [2000, 30], [2000, 50], [3000, 30], [3000, 50], [4000, 30], [4000, 50]], 'y': [[1], [1], [-1], [-1], [1], [-1], [1], [-1], [1], [-1], [1]], 'audiogram': {}, 'is_init_phase': True, 'is_exam_finished': False, 'threshold_uncertainty_db': 6}",6000,30,0.003664122665694519,False,0.013379900017753243,None,None,0,,109.76908310002182,110.78179519996047,None,1,110.78179519996047,109.76908310002182,,,bihhjl,001,fr,200,2022-06-23_11h00.37.026,Bayesian,2022.1.1,None,
,,,,15,0,15,0,,,,,,,,,,,,,,,,,,,,,,,,"{'x': [[1000, 60], [1000, 40], [1000, 20], [1500, 30], [1500, 50], [2000, 30], [2000, 50], [3000, 30], [3000, 50], [4000, 30], [4000, 50], [6000, 30]], 'y': [[1], [1], [-1], [-1], [1], [-1], [1], [-1], [1], [-1], [1], [-1]], 'audiogram': {}, 'is_init_phase': True, 'is_exam_finished': False, 'threshold_uncertainty_db': 6}",6000,50,0.03664122665694519,False,0.007023200043477118,0.20065850007813424,['space'],1,[0.34989959991071373],112.30031620000955,113.29709849995561,None,1,113.29709849995561,112.30031620000955,,,bihhjl,001,fr,200,2022-06-23_11h00.37.026,Bayesian,2022.1.1,None,
,,,,16,0,16,0,,,,,,,,,,,,,,,,,,,,,,,,"{'x': [[1000, 60], [1000, 40], [1000, 20], [1500, 30], [1500, 50], [2000, 30], [2000, 50], [3000, 30], [3000, 50], [4000, 30], [4000, 50], [6000, 30], [6000, 50]], 'y': [[1], [1], [-1], [-1], [1], [-1], [1], [-1], [1], [-1], [1], [-1], [1]], 'audiogram': {}, 'is_init_phase': True, 'is_exam_finished': False, 'threshold_uncertainty_db': 6}",8000,30,0.005740768107484416,False,0.008713699993677437,None,None,0,,115.398826599936,116.40427699999418,None,1,116.40427699999418,115.398826599936,,,bihhjl,001,fr,200,2022-06-23_11h00.37.026,Bayesian,2022.1.1,None,
,,,,17,0,17,0,,,,,,,,,,,,,,,,,,,,,,,,"{'x': [[1000, 60], [1000, 40], [1000, 20], [1500, 30], [1500, 50], [2000, 30], [2000, 50], [3000, 30], [3000, 50], [4000, 30], [4000, 50], [6000, 30], [6000, 50], [8000, 30]], 'y': [[1], [1], [-1], [-1], [1], [-1], [1], [-1], [1], [-1], [1], [-1], [1], [-1]], 'audiogram': {}, 'is_init_phase': True, 'is_exam_finished': False, 'threshold_uncertainty_db': 6}",8000,40,0.018153902738505076,False,0.009679600014351308,None,['space'],1,[0.4079139999812469],118.93794750003144,119.93509379995521,None,1,119.93509379995521,118.93794750003144,,,bihhjl,001,fr,200,2022-06-23_11h00.37.026,Bayesian,2022.1.1,None,
,,,,18,0,18,0,,,,,,,,,,,,,,,,,,,,,,,,"{'x': [[1000, 60], [1000, 40], [1000, 20], [1500, 30], [1500, 50], [2000, 30], [2000, 50], [3000, 30], [3000, 50], [4000, 30], [4000, 50], [6000, 30], [6000, 50], [8000, 30], [8000, 40]], 'y': [[1], [1], [-1], [-1], [1], [-1], [1], [-1], [1], [-1], [1], [-1], [1], [-1], [1]], 'audiogram': {}, 'is_init_phase': True, 'is_exam_finished': False, 'threshold_uncertainty_db': 6}",750,30,0.0012851978913844323,False,0.004636700148694217,None,['space'],1,[0.5383233999600634],122.91188769997098,123.91158419998828,None,1,123.91158419998828,122.91188769997098,,,bihhjl,001,fr,200,2022-06-23_11h00.37.026,Bayesian,2022.1.1,None,
,,,,19,0,19,0,,,,,,,,,,,,,,,,,,,,,,,,"{'x': [[1000, 60], [1000, 40], [1000, 20], [1500, 30], [1500, 50], [2000, 30], [2000, 50], [3000, 30], [3000, 50], [4000, 30], [4000, 50], [6000, 30], [6000, 50], [8000, 30], [8000, 40], [750, 30]], 'y': [[1], [1], [-1], [-1], [1], [-1], [1], [-1], [1], [-1], [1], [-1], [1], [-1], [1], [1]], 'audiogram': {}, 'is_init_phase': True, 'is_exam_finished': False, 'threshold_uncertainty_db': 6}",750,10,0.00012851978913844324,False,0.010470999986864626,0.20485849992837757,None,0,,125.67703080002684,126.69723729998805,None,1,126.69723729998805,125.67703080002684,,,bihhjl,001,fr,200,2022-06-23_11h00.37.026,Bayesian,2022.1.1,None,
,,,,20,0,20,0,,,,,,,,,,,,,,,,,,,,,,,,"{'x': [[1000, 60], [1000, 40], [1000, 20], [1500, 30], [1500, 50], [2000, 30], [2000, 50], [3000, 30], [3000, 50], [4000, 30], [4000, 50], [6000, 30], [6000, 50], [8000, 30], [8000, 40], [750, 30], [750, 10]], 'y': [[1], [1], [-1], [-1], [1], [-1], [1], [-1], [1], [-1], [1], [-1], [1], [-1], [1], [1], [-1]], 'audiogram': {}, 'is_init_phase': True, 'is_exam_finished': False, 'threshold_uncertainty_db': 6}",,,,True,6.886676419526339e-05,0.184070166782476,None,0,,128.135951400036,129.14631580002606,None,1,129.14631580002606,128.135951400036,,,bihhjl,001,fr,200,2022-06-23_11h00.37.026,Bayesian,2022.1.1,None,
,,,,21,0,21,0,,,,,,,,,,,,,,,,,,,,,,,,"{'x': [[1000, 60], [1000, 40], [1000, 20], [1500, 30], [1500, 50], [2000, 30], [2000, 50], [3000, 30], [3000, 50], [4000, 30], [4000, 50], [6000, 30], [6000, 50], [8000, 30], [8000, 40], [750, 30], [750, 10]], 'y': [[1], [1], [-1], [-1], [1], [-1], [1], [-1], [1], [-1], [1], [-1], [1], [-1], [1], [1], [-1]], 'audiogram': {}, 'is_init_phase': True, 'is_exam_finished': False, 'threshold_uncertainty_db': 6}",500,30,0.002259279721874612,False,0.007794800098054111,None,['space'],1,[0.5479317000135779],131.47044870001264,132.49075819994323,None,1,132.49075819994323,131.47044870001264,,,bihhjl,001,fr,200,2022-06-23_11h00.37.026,Bayesian,2022.1.1,None,
,,,,22,0,22,0,,,,,,,,,,,,,,,,,,,,,,,,"{'x': [[1000, 60], [1000, 40], [1000, 20], [1500, 30], [1500, 50], [2000, 30], [2000, 50], [3000, 30], [3000, 50], [4000, 30], [4000, 50], [6000, 30], [6000, 50], [8000, 30], [8000, 40], [750, 30], [750, 10], [500, 30]], 'y': [[1], [1], [-1], [-1], [1], [-1], [1], [-1], [1], [-1], [1], [-1], [1], [-1], [1], [1], [-1], [1]], 'audiogram': {}, 'is_init_phase': True, 'is_exam_finished': False, 'threshold_uncertainty_db': 6}",500,10,0.0002259279721874612,False,0.0122264000819996,None,None,0,,134.2084826999344,135.21870460000355,None,1,135.21870460000355,134.2084826999344,,,bihhjl,001,fr,200,2022-06-23_11h00.37.026,Bayesian,2022.1.1,None,
,,,,23,0,23,0,,,,,,,,,,,,,,,,,,,,,,,,"{'x': [[1000, 60], [1000, 40], [1000, 20], [1500, 30], [1500, 50], [2000, 30], [2000, 50], [3000, 30], [3000, 50], [4000, 30], [4000, 50], [6000, 30], [6000, 50], [8000, 30], [8000, 40], [750, 30], [750, 10], [500, 30], [500, 10]], 'y': [[1], [1], [-1], [-1], [1], [-1], [1], [-1], [1], [-1], [1], [-1], [1], [-1], [1], [1], [-1], [1], [-1]], 'audiogram': {}, 'is_init_phase': True, 'is_exam_finished': False, 'threshold_uncertainty_db': 6}",250,30,0.005296268625886445,False,0.014033599989488721,None,['space'],1,[0.3866031999932602],137.21639129996765,138.22657769999932,None,1,138.22657769999932,137.21639129996765,,,bihhjl,001,fr,200,2022-06-23_11h00.37.026,Bayesian,2022.1.1,None,
,,,,24,0,24,0,,,,,,,,,,,,,,,,,,,,,,,,"{'x': [[1000, 60], [1000, 40], [1000, 20], [1500, 30], [1500, 50], [2000, 30], [2000, 50], [3000, 30], [3000, 50], [4000, 30], [4000, 50], [6000, 30], [6000, 50], [8000, 30], [8000, 40], [750, 30], [750, 10], [500, 30], [500, 10], [250, 30]], 'y': [[1], [1], [-1], [-1], [1], [-1], [1], [-1], [1], [-1], [1], [-1], [1], [-1], [1], [1], [-1], [1], [-1], [1]], 'audiogram': {}, 'is_init_phase': True, 'is_exam_finished': False, 'threshold_uncertainty_db': 6}",250,10,0.0005296268625886444,False,0.006458999938331544,0.20158919994719326,None,0,,139.6961743000429,140.70843180001248,None,1,140.70843180001248,139.6961743000429,,,bihhjl,001,fr,200,2022-06-23_11h00.37.026,Bayesian,2022.1.1,None,
,,,,25,0,25,0,,,,,,,,,,,,,,,,,,,,,,,,"{'x': [[1000, 60], [1000, 40], [1000, 20], [1500, 30], [1500, 50], [2000, 30], [2000, 50], [3000, 30], [3000, 50], [4000, 30], [4000, 50], [6000, 30], [6000, 50], [8000, 30], [8000, 40], [750, 30], [750, 10], [500, 30], [500, 10], [250, 30], [250, 10]], 'y': [[1], [1], [-1], [-1], [1], [-1], [1], [-1], [1], [-1], [1], [-1], [1], [-1], [1], [1], [-1], [1], [-1], [1], [-1]], 'audiogram': {}, 'is_init_phase': True, 'is_exam_finished': False, 'threshold_uncertainty_db': 6}",125,30,0.02285440948074376,False,0.011413900065235794,None,['space'],1,[0.4219827000051737],143.78872079995926,144.8156205000123,None,1,144.8156205000123,143.78872079995926,,,bihhjl,001,fr,200,2022-06-23_11h00.37.026,Bayesian,2022.1.1,None,
,,,,26,0,26,0,,,,,,,,,,,,,,,,,,,,,,,,"{'x': [[1000, 60], [1000, 40], [1000, 20], [1500, 30], [1500, 50], [2000, 30], [2000, 50], [3000, 30], [3000, 50], [4000, 30], [4000, 50], [6000, 30], [6000, 50], [8000, 30], [8000, 40], [750, 30], [750, 10], [500, 30], [500, 10], [250, 30], [250, 10], [125, 30]], 'y': [[1], [1], [-1], [-1], [1], [-1], [1], [-1], [1], [-1], [1], [-1], [1], [-1], [1], [1], [-1], [1], [-1], [1], [-1], [1]], 'audiogram': {}, 'is_init_phase': True, 'is_exam_finished': False, 'threshold_uncertainty_db': 6}",125,10,0.002285440948074376,False,0.007939400034956634,None,None,0,,146.4572535000043,147.49192820000462,None,1,147.49192820000462,146.4572535000043,,,bihhjl,001,fr,200,2022-06-23_11h00.37.026,Bayesian,2022.1.1,None,
,,,,27,0,27,0,,,,,,,,,,,,,,,,,,,,,,,,"{'x': [[1000, 60], [1000, 40], [1000, 20], [1500, 30], [1500, 50], [2000, 30], [2000, 50], [3000, 30], [3000, 50], [4000, 30], [4000, 50], [6000, 30], [6000, 50], [8000, 30], [8000, 40], [750, 30], [750, 10], [500, 30], [500, 10], [250, 30], [250, 10], [125, 30], [125, 10]], 'y': [[1], [1], [-1], [-1], [1], [-1], [1], [-1], [1], [-1], [1], [-1], [1], [-1], [1], [1], [-1], [1], [-1], [1], [-1], [1], [-1]], 'audiogram': {}, 'is_init_phase': True, 'is_exam_finished': False, 'threshold_uncertainty_db': 6}",353.5533905932738,25.0,0.0015757748228274538,False,0.0019111998844891787,0.19438089989125729,['space'],1,[0.3827655999921262],152.01845630002208,153.03226330003235,None,1,153.03226330003235,152.01845630002208,,,bihhjl,001,fr,200,2022-06-23_11h00.37.026,Bayesian,2022.1.1,None,
,,,,28,0,28,0,,,,,,,,,,,,,,,,,,,,,,,,,,,,True,0.012844633311033249,None,None,0,,154.4623878999846,155.47783420002088,None,1,155.47783420002088,154.4623878999846,,,bihhjl,001,fr,200,2022-06-23_11h00.37.026,Bayesian,2022.1.1,None,
,,,,29,0,29,0,,,,,,,,,,,,,,,,,,,,,,,,,176.7766952966369,24.0,0.005547458636343739,False,0.014886066666804254,None,['space'],1,[0.3595503999385983],159.2197506999364,160.23754550004378,None,1,160.23754550004378,159.2197506999364,,,bihhjl,001,fr,200,2022-06-23_11h00.37.026,Bayesian,2022.1.1,None,
,,,,30,0,30,0,,,,,,,,,,,,,,,,,,,,,,,,,125.0,22.0,0.00909850429304992,False,0.011258666520006955,None,['space'],1,[0.3758097999962047],163.28189610003028,164.27709160000086,None,1,164.27709160000086,163.28189610003028,,,bihhjl,001,fr,200,2022-06-23_11h00.37.026,Bayesian,2022.1.1,None,
,,,,31,0,31,0,,,,,,,,,,,,,,,,,,,,,,,,,535.8867312681471,21.0,0.0007388082491012499,False,0.012350233388133347,None,None,0,,167.6687673999695,168.690586599987,None,1,168.690586599987,167.6687673999695,,,bihhjl,001,fr,200,2022-06-23_11h00.37.026,Bayesian,2022.1.1,None,
,,,,32,0,32,0,,,,,,,,,,,,,,,,,,,,,,,,,,,,True,0.010712533257901669,None,None,0,,170.38198629999533,171.40681489999406,None,1,171.40681489999406,170.38198629999533,,,bihhjl,001,fr,200,2022-06-23_11h00.37.026,Bayesian,2022.1.1,None,
,,,,33,0,33,0,,,,,,,,,,,,,,,,,,,,,,,,,2462.2888266898335,37.0,0.006021749000850111,False,0.007125700009055436,None,['space'],1,[0.5328611999284476],175.42892670002766,176.44563500001095,None,1,176.44563500001095,175.42892670002766,,,bihhjl,001,fr,200,2022-06-23_11h00.37.026,Bayesian,2022.1.1,None,
,,,,34,0,34,0,,,,,,,,,,,,,,,,,,,,,,,,,1148.6983549970344,31.0,0.0017837202889381294,False,0.012370800017379224,None,None,0,,180.37253519997466,181.3703301999485,['space'],0,181.3703301999485,180.37253519997466,[2.0876090000383556],,bihhjl,001,fr,200,2022-06-23_11h00.37.026,Bayesian,2022.1.1,None,
,,,,35,0,35,0,,,,,,,,,,,,,,,,,,,,,,,,,4924.577653379667,37.0,0.010446204222725295,False,0.011180433328263462,None,['space'],1,[0.4873259000014514],185.1145217999583,186.1298290999839,None,1,186.1298290999839,185.1145217999583,,,bihhjl,001,fr,200,2022-06-23_11h00.37.026,Bayesian,2022.1.1,None,
,,,,36,0,36,0,,,,,,,,,,,,,,,,,,,,,,,,,,,,True,0.003764233202673495,None,None,0,,187.51557990000583,188.52494759997353,None,1,188.52494759997353,187.51557990000583,,,bihhjl,001,fr,200,2022-06-23_11h00.37.026,Bayesian,2022.1.1,None,
,,,,37,0,37,0,,,,,,,,,,,,,,,,,,,,,,,,,233.2582478842019,20.0,0.002002829937560003,False,0.006578566739335656,0.20016196672804654,['space'],1,[0.390159499947913],192.6511148000136,193.64557219995186,None,1,193.64557219995186,192.6511148000136,,,bihhjl,001,fr,200,2022-06-23_11h00.37.026,Bayesian,2022.1.1,None,
,,,,38,0,38,0,,,,,,,,,,,,,,,,,,,,,,,,,164.93848884661182,17.0,0.0027831859114393217,False,0.01412196655292064,None,['space'],1,[0.5410883999429643],197.04510620003566,198.05146210000385,None,1,198.05146210000385,197.04510620003566,,,bihhjl,001,fr,200,2022-06-23_11h00.37.026,Bayesian,2022.1.1,None,
,,,,39,0,39,0,,,,,,,,,,,,,,,,,,,,,,,,,1515.7165665103996,37.0,0.0035135546789290574,False,0.006340633379295468,None,['space'],1,[0.4087590000126511],202.1302435999969,203.12396849994548,None,1,203.12396849994548,202.1302435999969,,,bihhjl,001,fr,200,2022-06-23_11h00.37.026,Bayesian,2022.1.1,None,
,,,,40,0,40,0,,,,,,,,,,,,,,,,,,,,,,,,,353.5533905932738,20.0,0.000886123302070378,False,0.012636433355510235,None,['space'],1,[0.46784860000479966],207.3833601999795,208.3911379999481,None,1,208.3911379999481,207.3833601999795,,,bihhjl,001,fr,200,2022-06-23_11h00.37.026,Bayesian,2022.1.1,None,
,,,,41,0,41,0,,,,,,,,,,,,,,,,,,,,,,,,,,,,True,0.012503833277150989,None,None,0,,209.91555589996278,210.91630559996702,None,1,210.91630559996702,209.91555589996278,,,bihhjl,001,fr,200,2022-06-23_11h00.37.026,Bayesian,2022.1.1,None,
,,,,42,0,42,0,,,,,,,,,,,,,,,,,,,,,,,,,812.2523963562351,28.0,0.0009725097424280739,False,0.0097773332381621,0.20355443330481648,['space'],1,[0.41600349999498576],213.65060569997877,214.65989609993994,None,1,214.65989609993994,213.65060569997877,,,bihhjl,001,fr,200,2022-06-23_11h00.37.026,Bayesian,2022.1.1,None,
,,,,43,0,43,0,,,,,,,,,,,,,,,,,,,,,,,,,125.0,17.0,0.005116464961403773,False,0.001944266608916223,0.1917019666871056,['space'],1,[0.4354617000790313],219.04717579996213,220.04103900003247,None,1,220.04103900003247,219.04717579996213,,,bihhjl,001,fr,200,2022-06-23_11h00.37.026,Bayesian,2022.1.1,None,
,,,,44,0,44,0,,,,,,,,,,,,,,,,,,,,,,,,,189.4645708137998,14.0,0.0015226670530385097,False,0.012372899916954339,None,None,0,,223.7546651000157,224.76750780001748,None,1,224.76750780001748,223.7546651000157,,,bihhjl,001,fr,200,2022-06-23_11h00.37.026,Bayesian,2022.1.1,None,
,,,,45,0,45,0,,,,,,,,,,,,,,,,,,,,,,,,,,,,True,0.012361133238300681,None,None,0,,227.03216629999224,228.0503515000455,None,1,228.0503515000455,227.03216629999224,,,bihhjl,001,fr,200,2022-06-23_11h00.37.026,Bayesian,2022.1.1,None,
,,,,46,0,46,0,,,,,,,,,,,,,,,,,,,,,,,,,8000.0,34.0,0.00909850429304992,False,0.009109166567213833,0.20176606660243124,None,0,,231.53025609999895,232.54442109994125,None,1,232.54442109994125,231.53025609999895,,,bihhjl,001,fr,200,2022-06-23_11h00.37.026,Bayesian,2022.1.1,None,
,,,,47,0,47,0,,,,,,,,,,,,,,,,,,,,,,,,,3482.202253184498,34.0,0.0037514228223060587,False,0.005854933289811015,None,None,0,,235.82834250002634,236.82710699993186,None,1,236.82710699993186,235.82834250002634,,,bihhjl,001,fr,200,2022-06-23_11h00.37.026,Bayesian,2022.1.1,None,
,,,,48,0,48,0,,,,,,,,,,,,,,,,,,,,,,,,,307.7861033362292,16.0,0.0006704780114820167,False,0.004402933293022215,None,None,0,,240.6945305999834,241.6989661999978,None,1,241.6989661999978,240.6945305999834,,,bihhjl,001,fr,200,2022-06-23_11h00.37.026,Bayesian,2022.1.1,None,
,,,,49,0,49,0,,,,,,,,,,,,,,,,,,,,,,,,,,,,True,0.014541433192789555,None,None,0,,242.8524357000133,243.8681152999634,None,1,243.8681152999634,242.8524357000133,,,bihhjl,001,fr,200,2022-06-23_11h00.37.026,Bayesian,2022.1.1,None,
,,,,50,0,50,0,,,,,,,,,,,,,,,,,,,,,,,,,615.5722066724584,24.0,0.000846576891483817,False,0.0024158000014722347,0.18813759996555746,None,0,,247.21431790001225,248.22283640003297,None,1,248.22283640003297,247.21431790001225,,,bihhjl,001,fr,200,2022-06-23_11h00.37.026,Bayesian,2022.1.1,None,
,,,,51,0,51,0,,,,,,,,,,,,,,,,,,,,,,,,,5656.85424949238,34.0,0.006441443068498752,False,0.00861816678661853,0.20055166678503156,['space'],1,[0.43028810003306717],252.7164974999614,253.71211720001884,None,1,253.71211720001884,252.7164974999614,,,bihhjl,001,fr,200,2022-06-23_11h00.37.026,Bayesian,2022.1.1,None,
,,,,52,0,52,0,,,,,,,,,,,,,,,,,,,,,,,,,435.2752816480623,22.0,0.0009410709265115105,False,0.013637800118885934,None,None,0,,257.8474745999556,258.8509519000072,None,1,258.8509519000072,257.8474745999556,,,bihhjl,001,fr,200,2022-06-23_11h00.37.026,Bayesian,2022.1.1,None,
,,,,53,0,53,0,,,,,,,,,,,,,,,,,,,,,,,,,2639.015821545789,35.0,0.004344455436419075,False,0.013950033346191049,None,None,0,,261.741737299948,262.7699795999797,None,1,262.7699795999797,261.741737299948,,,bihhjl,001,fr,200,2022-06-23_11h00.37.026,Bayesian,2022.1.1,None,
,,,,54,0,54,0,,,,,,,,,,,,,,,,,,,,,,,,,4000.0,35.0,0.004720304381429617,False,0.016405300004407763,None,None,0,,266.89931400003843,267.91549469996244,None,1,267.91549469996244,266.89931400003843,,,bihhjl,001,fr,200,2022-06-23_11h00.37.026,Bayesian,2022.1.1,None,
,,,,55,0,55,0,,,,,,,,,,,,,,,,,,,,,,,,,1071.7734625362941,31.0,0.0016695574131143172,False,0.005225566565059125,None,None,0,,271.54300559998956,272.5716425999999,None,1,272.5716425999999,271.54300559998956,,,bihhjl,001,fr,200,2022-06-23_11h00.37.026,Bayesian,2022.1.1,None,
,,,,56,0,56,0,,,,,,,,,,,,,,,,,,,,,,,,,1741.101126592249,34.0,0.0031635787586497648,False,0.002096499898470938,0.19660559995099902,None,0,,276.3852896000026,277.388158799964,None,1,277.388158799964,276.3852896000026,,,bihhjl,001,fr,200,2022-06-23_11h00.37.026,Bayesian,2022.1.1,None,
,,,,57,0,57,0,,,,,,,,,,,,,,,,,,,,,,,,,,,,True,0.012984333327040076,None,None,0,,279.053134100046,280.0725983999437,None,1,280.0725983999437,279.053134100046,,,bihhjl,001,fr,200,2022-06-23_11h00.37.026,Bayesian,2022.1.1,None,
,,,,58,0,58,0,,,,,,,,,,,,,,,,,,,,,,,,,125.0,15.0,0.004064152580820497,False,0.011888866662047803,None,None,0,,284.5481924000196,285.54322110000066,None,1,285.54322110000066,284.5481924000196,,,bihhjl,001,fr,200,2022-06-23_11h00.37.026,Bayesian,2022.1.1,None,
,,,,59,0,59,0,,,,,,,,,,,,,,,,,,,,,,,,,3482.202253184498,39.0,0.006671077963256968,False,0.013251333381049335,None,['space'],1,[0.4838226999854669],288.79764280002564,289.80003229994327,None,1,289.80003229994327,288.79764280002564,,,bihhjl,001,fr,200,2022-06-23_11h00.37.026,Bayesian,2022.1.1,None,
,,,,60,0,60,0,,,,,,,,,,,,,,,,,,,,,,,,,250.0,18.0,0.0013303625298994048,False,0.00898816657718271,None,['space'],1,[0.7529341999907047],293.3054994000122,294.31418630003463,None,1,294.31418630003463,293.3054994000122,,,bihhjl,001,fr,200,2022-06-23_11h00.37.026,Bayesian,2022.1.1,None,
,,,,61,0,61,0,,,,,,,,,,,,,,,,,,,,,,,,,8000.0,36.0,0.01145433826383887,False,0.003594100009649992,None,None,0,,297.81129340000916,298.8191966000013,None,1,298.8191966000013,297.81129340000916,,,bihhjl,001,fr,200,2022-06-23_11h00.37.026,Bayesian,2022.1.1,None,
,,,,62,0,62,0,,,,,,,,,,,,,,,,,,,,,,,,,574.3491774985172,27.0,0.0013397894988136155,False,0.0024381666444242,0.1878281666431576,None,0,,301.6547138999449,302.66012739995494,None,1,302.66012739995494,301.6547138999449,,,bihhjl,001,fr,200,2022-06-23_11h00.37.026,Bayesian,2022.1.1,None,
,,,,63,0,63,0,,,,,,,,,,,,,,,,,,,,,,,,,2000.0,35.0,0.004206975708225976,False,0.01434683334082365,None,None,0,,306.71750689996406,307.7334209999535,None,1,307.7334209999535,306.71750689996406,,,bihhjl,001,fr,200,2022-06-23_11h00.37.026,Bayesian,2022.1.1,None,
,,,,64,0,64,0,,,,,,,,,,,,,,,,,,,,,,,,,,,,True,0.004971033311448991,None,None,0,,309.40260959998704,310.42365799995605,None,1,310.42365799995605,309.40260959998704,,,bihhjl,001,fr,200,2022-06-23_11h00.37.026,Bayesian,2022.1.1,None,
,,,,65,0,65,0,,,,,,,,,,,,,,,,,,,,,,,,,1319.5079107728945,36.0,0.003330418178686938,False,0.009620600030757487,None,None,0,,314.92614440002944,315.9415392000228,None,1,315.9415392000228,314.92614440002944,,,bihhjl,001,fr,200,2022-06-23_11h00.37.026,Bayesian,2022.1.1,None,
,,,,66,0,66,0,,,,,,,,,,,,,,,,,,,,,,,,,933.0329915368076,30.0,0.0013328721315527424,False,0.015181000111624599,None,['space'],1,[0.45511620002798736],320.84295069996733,321.84341430000495,None,1,321.84341430000495,320.84295069996733,,,bihhjl,001,fr,200,2022-06-23_11h00.37.026,Bayesian,2022.1.1,None,
,,,,67,0,67,0,,,,,,,,,,,,,,,,,,,,,,,,,164.93848884661182,15.0,0.0022107631519430867,False,0.012457766570150852,None,None,0,,325.3051007000031,326.3283907000441,None,1,326.3283907000441,325.3051007000031,,,bihhjl,001,fr,200,2022-06-23_11h00.37.026,Bayesian,2022.1.1,None,
,,,,68,0,68,0,,,,,,,,,,,,,,,,,,,,,,,,,,,,True,0.008926533395424485,None,None,0,,327.6415791999316,328.6609574999893,None,1,328.6609574999893,327.6415791999316,,,bihhjl,001,fr,200,2022-06-23_11h00.37.026,Bayesian,2022.1.1,None,
,,,,69,0,69,0,,,,,,,,,,,,,,,,,,,,,,,,,5656.85424949238,33.0,0.0057409421777346245,False,0.008382266503758729,None,['space'],1,[0.40848690003622323],332.7291372999316,333.7482256999938,None,1,333.7482256999938,332.7291372999316,,,bihhjl,001,fr,200,2022-06-23_11h00.37.026,Bayesian,2022.1.1,None,
,,,,70,0,70,0,,,,,,,,,,,,,,,,,,,,,,,,,435.2752816480623,25.0,0.0013292980158504297,False,0.0018583666533231735,None,['space'],1,[0.5201149999629706],337.8585786999902,338.86445829994045,None,1,338.86445829994045,337.8585786999902,,,bihhjl,001,fr,200,2022-06-23_11h00.37.026,Bayesian,2022.1.1,None,
,,,,71,0,71,0,,,,,,,,,,,,,,,,,,,,,,,,,1866.0659830736151,37.0,0.004868135812041065,False,0.007650733459740877,0.20263003348372877,None,0,,341.9778886999702,342.99711949995253,None,1,342.99711949995253,341.9778886999702,,,bihhjl,001,fr,200,2022-06-23_11h00.37.026,Bayesian,2022.1.1,None,
,,,,72,0,72,0,,,,,,,,,,,,,,,,,,,,,,,,,707.1067811865476,26.0,0.000885955286348447,False,0.00695696659386158,0.20478226663544774,None,0,,346.01255800004583,347.02894009999,None,1,347.02894009999,346.01255800004583,,,bihhjl,001,fr,200,2022-06-23_11h00.37.026,Bayesian,2022.1.1,None,
,,,,73,0,73,0,,,,,,,,,,,,,,,,,,,,,,,,,233.2582478842019,16.0,0.0012637002588482907,False,0.013187500066123903,None,['space'],1,[0.5337910999078304],352.1001263000071,353.1210122000193,None,1,353.1210122000193,352.1001263000071,,,bihhjl,001,fr,200,2022-06-23_11h00.37.026,Bayesian,2022.1.1,None,
,,,,74,0,74,0,,,,,,,,,,,,,,,,,,,,,,,,,2828.42712474619,37.0,0.004636051375812109,False,0.009847933310084045,None,None,0,,356.52547610003967,357.5454961999785,None,1,357.5454961999785,356.52547610003967,,,bihhjl,001,fr,200,2022-06-23_11h00.37.026,Bayesian,2022.1.1,None,
,,,,75,0,75,0,,,,,,,,,,,,,,,,,,,,,,,,,4594.793419988137,33.0,0.005577535693020852,False,0.015188666642643511,None,['space'],1,[0.3715158000122756],362.28744270000607,363.29087549995165,None,1,363.29087549995165,362.28744270000607,,,bihhjl,001,fr,200,2022-06-23_11h00.37.026,Bayesian,2022.1.1,None,
,,,,76,0,76,0,,,,,,,,,,,,,,,,,,,,,,,,,8000.0,38.0,0.014420157515633034,False,0.014607300166971982,None,None,0,,368.01475370000117,369.03024110000115,None,1,369.03024110000115,368.01475370000117,,,bihhjl,001,fr,200,2022-06-23_11h00.37.026,Bayesian,2022.1.1,None,
,,,,77,0,77,0,,,,,,,,,,,,,,,,,,,,,,,,,1515.7165665103996,39.0,0.0044233032710320865,False,0.016054400010034442,None,['space'],1,[0.4791992000536993],373.6187597999815,374.63133070000913,None,1,374.63133070000913,373.6187597999815,,,bihhjl,001,fr,200,2022-06-23_11h00.37.026,Bayesian,2022.1.1,None,
,,,,78,0,78,0,,,,,,,,,,,,,,,,,,,,,,,,,,,,True,0.012274733278900385,None,None,0,,376.82334150001407,377.8406347000273,None,1,377.8406347000273,376.82334150001407,,,bihhjl,001,fr,200,2022-06-23_11h00.37.026,Bayesian,2022.1.1,None,
,,,,79,0,79,0,,,,,,,,,,,,,,,,,,,,,,,,,125.0,17.0,0.005116464961403773,False,0.006857966654933989,None,None,0,,382.87383739999495,383.8856403999962,None,1,383.8856403999962,382.87383739999495,,,bihhjl,001,fr,200,2022-06-23_11h00.37.026,Bayesian,2022.1.1,None,
,,,,80,0,80,0,,,,,,,,,,,,,,,,,,,,,,,,,307.7861033362292,16.0,0.0006704780114820167,False,0.001503199920989573,0.193053099908866,None,0,,387.89511089993175,388.9066034000134,None,1,388.9066034000134,387.89511089993175,,,bihhjl,001,fr,200,2022-06-23_11h00.37.026,Bayesian,2022.1.1,None,
,,,,81,0,81,0,,,,,,,,,,,,,,,,,,,,,,,,,2297.3967099940687,38.0,0.0064661699679305065,False,0.011409633327275515,None,"['space', 'space']",0,"[0.6287664000410587, 0.7487385000567883]",392.35744870000053,393.3564784999471,None,1,393.3564784999471,392.35744870000053,,,bihhjl,001,fr,200,2022-06-23_11h00.37.026,Bayesian,2022.1.1,None,
,,,,82,0,82,0,,,,,,,,,,,,,,,,,,,,,,,,,,,,True,0.012469333363696933,None,None,0,,394.5185168000171,395.5131157999858,None,1,395.5131157999858,394.5185168000171,,,bihhjl,001,fr,200,2022-06-23_11h00.37.026,Bayesian,2022.1.1,None,
,,,,83,0,83,0,,,,,,,,,,,,,,,,,,,,,,,,,574.3491774985172,28.0,0.0015032685425488551,False,0.011365466634742916,None,None,0,,400.0791720999405,401.0911684000166,None,1,401.0911684000166,400.0791720999405,,,bihhjl,001,fr,200,2022-06-23_11h00.37.026,Bayesian,2022.1.1,None,
,,,,84,0,84,0,,,,,,,,,,,,,,,,,,,,,,,,,6062.8662660415985,32.0,0.004730805503431344,False,0.016411866643466055,None,None,0,,404.63211150001734,405.643207599991,None,1,405.643207599991,404.63211150001734,,,bihhjl,001,fr,200,2022-06-23_11h00.37.026,Bayesian,2022.1.1,None,
,,,,85,0,85,0,,,,,,,,,,,,,,,,,,,,,,,,,8000.0,39.0,0.016179682846481417,False,0.004254400031641126,0.19321300007868558,None,0,,410.5695361000253,411.58471249998547,None,1,411.58471249998547,410.5695361000253,,,bihhjl,001,fr,200,2022-06-23_11h00.37.026,Bayesian,2022.1.1,None,
,,,,86,0,86,0,,,,,,,,,,,,,,,,,,,,,,,,,8000.0,39.0,0.016179682846481417,False,None,None,None,0,,None,None,None,1,None,None,,"{'estimation': [[125.0, 18.173484184475065], [127.63414120683315, 18.0], [133.9716828170366, 17.609039372773694], [143.5872943746293, 17.165536251453887], [147.97577805831156, 17.0], [153.89305166811442, 16.78182025365567], [164.93848884661162, 16.427865668147323], [176.77669529663666, 16.08165514605822], [179.89542678391862, 16.0], [189.46457081379947, 15.759269502676142], [203.0630990890585, 15.510250927933381], [217.6376408240306, 15.381870299461335], [233.25824788420132, 15.415962982174147], [249.99999999999937, 15.633804144956391], [266.08578392972777, 16.0], [267.94336563407256, 16.041006007444324], [287.1745887492579, 16.622938488500367], [297.18805483471556, 17.0], [307.78610333622805, 17.385027500518813], [321.88286510537483, 18.0], [329.87697769322244, 18.33777877591176], [343.0834446959812, 19.0], [353.55339059327247, 19.508643194256045], [362.2794425933215, 20.0], [378.929141627598, 20.91762810907877], [380.2969262410168, 21.0], [396.72069587823165, 22.0], [406.12619817811606, 22.544879706665434], [413.59863572825714, 23.0], [429.9528916226628, 24.0], [435.2752816480601, 24.304489664930905], [447.59893511959353, 25.0], [465.7690825721959, 26.0], [466.5164957684015, 26.03875527686212], [487.3949977617073, 27.0], [499.9999999999975, 27.552220245592782], [514.3311244060129, 28.0], [535.8867312681438, 28.650652412787608], [559.7053370818909, 29.0], [574.3491774985143, 29.20901132748202], [615.5722066724546, 29.208519583857147], [636.252724420172, 29.0], [659.7539553864432, 28.771644487637854], [707.1067811865431, 28.145474531390082], [720.5323953820022, 28.0], [757.8582832551941, 27.61213434736711], [812.2523963562301, 27.45210865578541], [870.5505632961181, 27.83510414802811], [880.9160039867263, 28.0], [933.0329915368008, 28.803599184117257], [941.9895297455846, 29.0], [987.7677293524179, 30.0], [999.9999999999926, 30.25469760911161], [1030.6719632746042, 31.0], [1071.773462536285, 31.97163162489152], [1073.0187775821698, 32.0], [1116.3085186891722, 33.0], [1148.698354997026, 33.71067816702312], [1163.939531917318, 34.0], [1217.17873776517, 35.0], [1231.1444133449063, 35.24673339425587], [1287.0810003413671, 36.0], [1319.5079107728832, 36.41586704910984], [1393.3281138938646, 37.0], [1414.2135623730828, 37.15895965915695], [1515.7165665103846, 37.49534248380189], [1624.5047927124563, 37.51466302373089], [1741.1011265922318, 37.33907123251382], [1866.065983073597, 37.095439700475254], [1930.278383060794, 37.0], [1999.9999999999802, 36.90010724484241], [2143.5469250725646, 36.843714326279006], [2297.396709994046, 36.965464858798846], [2316.8731764216714, 37.00000000000001], [2462.2888266898062, 37.24799782389515], [2639.01582154576, 37.605416509454585], [2828.427124746159, 37.91363634999545], [2997.174951235353, 38.0], [3031.4331330207615, 38.017246615624416], [3046.2077700402715, 38.0], [3249.0095854249043, 37.7732142657211], [3482.2022531844555, 37.11180246142274], [3507.559611641417, 37.0], [3732.1319661471844, 36.04590300125809], [3741.1232925951717, 36.0], [3939.2546215899383, 35.0], [3999.999999999946, 34.70748826461904], [4144.295955531206, 34.0], [4287.093850145118, 33.323092750822866], [4369.921977654677, 33.0], [4594.793419988081, 32.15120362747138], [4662.285269341805, 32.0], [4924.577653379601, 31.44107461450291], [5278.031643091506, 31.363495548070134], [5656.85424949231, 31.958969220204356], [5670.666030883042, 32.0], [6012.724642275161, 33.0], [6062.866266041516, 33.141408306701194], [6300.219859560729, 34.0], [6498.019170849792, 34.69382397237325], [6583.6414499701295, 35.0], [6861.197799662503, 36.0], [6964.4045063688845, 36.350517293622175], [7182.119166500671, 37.0], [7464.2639322943505, 37.81623325735383], [7557.913158482798, 38.0], [7999.999999999882, 38.865571088928796]], 'plus_line': [[125.0, 15.280779981123166], [130.0606570211151, 14.999999999999998], [133.9716828170366, 14.778835514707847], [143.5872943746293, 14.296882626237746], [151.02065421579798, 14.0], [153.89305166811442, 13.877121317143498], [164.93848884661162, 13.495915286504175], [176.77669529663666, 13.15814079537718], [183.1191001697083, 13.0], [189.46457081379958, 12.832217089527237], [203.0630990890585, 12.57343975174702], [217.6376408240306, 12.450524347807942], [233.25824788420132, 12.499860002253765], [249.99999999999937, 12.742821984988604], [260.153055442208, 13.0], [267.94336563407256, 13.175312797197332], [287.1745887492579, 13.763986540612505], [293.24917561195673, 14.0], [307.78610333622805, 14.524086865608666], [318.6723816853133, 15.0], [329.87697769322244, 15.470715287560932], [340.6619279174996, 16.0], [353.55339059327247, 16.62893327819679], [360.41336369758795, 17.0], [378.14791994458227, 18.0], [378.929141627598, 18.041872708034155], [395.39991432385085, 19.0], [406.12619817811606, 19.64811423803748], [412.24653977533393, 20.0], [428.3731791666216, 21.0], [435.2752816480601, 21.415110614499785], [446.1620660840618, 22.0], [463.30564064115526, 23.0], [466.5164957684015, 23.17427296920585], [484.9446494409148, 24.0], [499.9999999999975, 24.69294334919502], [509.81183954067916, 25.0], [535.8867312681438, 25.800451853021826], [548.9385457320091, 26.0], [574.3491774985143, 26.35097062690035], [615.5722066724546, 26.342920631951205], [651.0042242356301, 26.0], [659.7539553864432, 25.91028715684068], [707.1067811865431, 25.27325695714164], [733.2507750639481, 25.0], [757.8582832551951, 24.73386397860985], [812.2523963562301, 24.561352842475436], [870.5505632961181, 24.9474381552096], [873.8662366979509, 25.000000000000004], [933.0329915367996, 25.900591629656812], [937.7402416069332, 26.0], [984.2063475195654, 27.0], [999.9999999999926, 27.33609292761875], [1028.7627833634133, 27.999999999999996], [1068.7960077162327, 29.0], [1071.773462536285, 29.068899191217866], [1113.8961914555998, 30.0], [1148.6983549970246, 30.812886710895143], [1158.8585981339331, 31.0], [1211.3152729941798, 32.0], [1231.1444133449063, 32.368248477955255], [1277.3054888351435, 33.0], [1319.5079107728832, 33.566635219123654], [1370.4825438026985, 34.0], [1414.2135623730828, 34.34463991831535], [1515.7165665103828, 34.70138383858904], [1624.5047927124563, 34.72780648253848], [1741.1011265922318, 34.542200385770386], [1866.065983073597, 34.2953161444131], [1999.9999999999802, 34.10890671569048], [2143.5469250725646, 34.06357683009046], [2297.396709994046, 34.1886887067762], [2462.2888266898062, 34.45632688431557], [2639.01582154576, 34.79546975522715], [2771.7816959490433, 35.0], [2828.427124746159, 35.07768363588784], [3031.4331330207615, 35.146680971612525], [3161.0447961880786, 35.0], [3249.0095854249043, 34.89295908187748], [3482.2022531844555, 34.23625159409941], [3536.515621624295, 34.0], [3732.1319661471844, 33.18479950003786], [3767.8780965203996, 33.0], [3966.906777187807, 32.0], [3999.9999999999504, 31.845587720597997], [4166.8398798701355, 31.0], [4287.093850145118, 30.445600885085522], [4400.90432136461, 30.0], [4594.793419988081, 29.28098272110885], [4728.5365787253895, 29.0], [4924.577653379601, 28.588062639575448], [5278.031643091506, 28.539703373117987], [5552.5347478647345, 29.0], [5656.854249492303, 29.16049786573043], [5949.7951462127985, 30.0], [6062.866266041501, 30.319732569780605], [6261.184066440518, 31.0], [6498.019170849792, 31.858157596188832], [6539.832545212138, 32.0], [6822.002848730122, 33.0], [6964.404506368902, 33.505463255311824], [7135.379863782864, 34.0], [7464.2639322943505, 34.99545374899539], [7466.738576354919, 35.0], [7999.999999999882, 35.95929424564622]], 'minus_line': [[125.0, 21.09067143441274], [126.15833884143406, 21.0], [133.9716828170366, 20.46151829737913], [143.5872943746293, 20.029243316039004], [144.3981073764941, 20.0], [153.8930516681145, 19.69882207461123], [164.93848884661162, 19.363871187266117], [176.77669529663666, 19.001752892861646], [176.83976993352232, 19.0], [189.46457081379947, 18.696148603559607], [203.0630990890585, 18.45219733422408], [217.6376408240306, 18.31596641965053], [233.25824788420132, 18.33495645247678], [249.99999999999937, 18.533883369275046], [267.94336563407256, 18.907859730877625], [270.9913429713941, 19.0], [287.1745887492579, 19.49315188072715], [301.0573726713829, 20.0], [307.78610333622805, 20.246614202937508], [325.109964125441, 21.0], [329.87697769322244, 21.202121641583926], [345.435415025611, 22.0], [353.55339059327247, 22.390886878980528], [363.97056994720845, 23.0], [378.929141627598, 23.804713537601526], [382.0620422191978, 24.0], [398.0042948934629, 25.0], [406.12619817811606, 25.448216789529717], [414.7842614559387, 26.0], [431.54241477549857, 27.0], [435.2752816480601, 27.200005325896804], [448.79688422802644, 28.0], [466.5164957684015, 28.919378937219545], [468.23825595550517, 29.0], [489.39868621468787, 30.0], [499.9999999999975, 30.444453497570244], [517.6838729488601, 31.0], [535.8867312681438, 31.54548936864886], [567.7238277625017, 32.0], [574.3491774985143, 32.09876743371379], [615.5722066724546, 32.103649342330144], [625.2309189291052, 32.0], [659.7539553864432, 31.673777699293662], [707.1067811865431, 31.02475250872528], [709.2503667532932, 31.0], [757.8582832551951, 30.502851479400082], [812.2523963562301, 30.342576453438344], [870.5505632961181, 30.732150283762017], [887.2131227008828, 31.0], [933.0329915368008, 31.71686435002788], [945.542356167872, 32.0], [991.1505971369758, 33.0], [999.9999999999939, 33.17897268039979], [1032.0186508246502, 34.0], [1071.773462536285, 34.89721522404132], [1076.1672329718892, 35.0], [1117.7035578886193, 36.0], [1148.698354997026, 36.64227714653651], [1167.24725114965, 37.0], [1222.004114218853, 38.0], [1231.1444133449063, 38.15290988254527], [1295.2408934109608, 39.0], [1319.5079107728832, 39.29912809883301], [1414.2135623730828, 39.99206985993767], [1416.7450174602293, 40.0], [1515.7165665103846, 40.32221856101319], [1624.5047927124563, 40.3314980964428], [1741.1011265922318, 40.15030788324428], [1813.8861086048635, 40.0], [1866.065983073597, 39.90634170373375], [1999.9999999999802, 39.72169062768902], [2143.5469250725646, 39.65944681627094], [2297.396709994046, 39.76832951007049], [2435.3709286347967, 40.0], [2462.2888266898062, 40.049118286498576], [2639.01582154576, 40.45276070198293], [2828.427124746159, 40.79406735484277], [3031.4331330207615, 40.924432397489795], [3249.0095854249043, 40.701759669699], [3482.2022531844555, 40.01380638983521], [3485.2895350345207, 40.0], [3715.9957622979746, 39.0], [3732.1319661471844, 38.93262226039133], [3919.3088378310345, 38.0], [3999.9999999999504, 37.599718880844826], [4125.3037661981925, 37.0], [4287.093850145118, 36.20687121193336], [4340.100276614195, 36.0], [4594.793419988081, 35.00957368534648], [4598.760725319199, 35.0], [4924.577653379601, 34.286644686554595], [5278.031643091513, 34.17057390726012], [5656.854249492303, 34.754835848034446], [5737.539838133119, 35.0], [6062.866266041508, 35.94642602686672], [6077.243302388174, 36.0], [6337.187772665198, 37.0], [6498.019170849792, 37.54667496863346], [6619.206482781393, 38.0], [6899.133500630828, 39.0], [6964.404506368894, 39.210801429182844], [7217.9236447987905, 40.0], [7464.26393229436, 40.69404258420822], [7605.759140523761, 41.0], [7999.999999999872, 41.84373219026287]]}",bihhjl,001,fr,200,2022-06-23_11h00.37.026,Bayesian,2022.1.1,None,
