frequencies,training_trials.thisRepN,training_trials.thisTrialN,training_trials.thisN,training_trials.thisIndex,frequencies.thisRepN,frequencies.thisTrialN,frequencies.thisN,frequencies.thisIndex,trials.thisRepN,trials.thisTrialN,trials.thisN,trials.thisIndex,tFrequency,tLevel,tCorrect,Tprobe.started,Tprobe.stopped,tTriangle_cue.started,tTriangle_cue.stopped,Tfeedback.keys,Tfeedback.corr,Tfeedback.rt,Tfeedback.started,Tfeedback.stopped,reversals_nTrials.routineEndVal,track_dir.routineEndVal,step_up.routineEndVal,Correct,Frequency,Level,Psychopy_Level,Direction,Reversals,Track_dir,Step,probe.started,probe.stopped,cross_cue.started,cross_cue.stopped,circle_cue.started,circle_cue.stopped,triangle_cue.started,triangle_cue.stopped,feedback.keys,feedback.corr,feedback.rt,feedback.started,feedback.stopped,memo.started,memo.stopped,key_resp.keys,key_resp.rt,key_resp.started,key_resp.stopped,text.started,text.stopped,participant,session,skip_training,language (english or french),date,expName,psychopyVersion,frameRate,
200,0,0,0,0,,,,,,,,,200,30,up,41.7318053199444,41.95170880004298,None,None,up,1,2.1930080999154598,40.253203699947335,None,,,,,,,,,,,,,,,,,,,,,,,,,,,,,,,,,cmzntn,001,0,fr,2022-05-02_15h13.11.669,3-AFC_adaptive_staircase_mess,2022.1.1,29.62092327551204,
850,0,1,1,2,,,,,,,,,850,30,right,48.02088941999246,None,47.95911010005511,48.27510840003379,right,1,2.730340800015256,45.55491369997617,None,,,,,,,,,,,,,,,,,,,,,,,,,,,,,,,,,cmzntn,001,0,fr,2022-05-02_15h13.11.669,3-AFC_adaptive_staircase_mess,2022.1.1,29.62092327551204,
5000,0,2,2,4,,,,,,,,,5000,30,left,51.174672119948085,None,None,None,left,1,1.0703675999538973,50.71949869999662,None,,,,,,,,,,,,,,,,,,,,,,,,,,,,,,,,,cmzntn,001,0,fr,2022-05-02_15h13.11.669,3-AFC_adaptive_staircase_mess,2022.1.1,29.62092327551204,
1300,0,3,3,3,,,,,,,,,1300,30,left,54.28620651997626,54.51231649995316,None,None,left,1,0.9343770999694243,53.830708599998616,None,,,,,,,,,,,,,,,,,,,,,,,,,,,,,,,,,cmzntn,001,0,fr,2022-05-02_15h13.11.669,3-AFC_adaptive_staircase_mess,2022.1.1,29.62092327551204,
450,0,4,4,1,,,,,,,,,450,30,left,58.04323851997033,None,None,None,left,1,0.9548086000140756,57.585614899988286,None,,,,,,,,,,,,,,,,,,,,,,,,,,,,,,,,,cmzntn,001,0,fr,2022-05-02_15h13.11.669,3-AFC_adaptive_staircase_mess,2022.1.1,29.62092327551204,
,,,,,0,0,0,0,0,0,0,0,,,,,,,,,,,,,[],[],10,up,1000,30,0.0013930605843148849,0,0,-1,10,65.82575182004366,66.04106359998696,64.76997839997057,65.11599570000544,65.79666650004219,66.10116980003659,None,None,up,1,1.2988725000759587,64.82557159999851,None,None,None,,,,,,,cmzntn,001,0,fr,2022-05-02_15h13.11.669,3-AFC_adaptive_staircase_mess,2022.1.1,29.62092327551204,
,,,,,0,0,0,0,1,0,1,0,,,,,,,,,,,,,,,,up,1000,30,0.0013930605843148849,0,0,-1,10,68.64582072005142,68.85949850000907,67.6289316000184,67.94637719995808,68.61673540004995,68.92067430005409,None,None,up,1,1.2797710000304505,67.66180799994618,None,None,None,,,,,,,cmzntn,001,0,fr,2022-05-02_15h13.11.669,3-AFC_adaptive_staircase_mess,2022.1.1,29.62092327551204,
,,,,,0,0,0,0,2,0,2,0,,,,,,,,,,,,,,,,left,1000,10,0.00013930605843148847,-1,0,-1,-10,70.47760121994652,None,70.4184681000188,70.7372315999819,71.41650960000698,None,None,None,left,1,0.9062402000417933,70.48163920000661,None,None,None,,,,,,,cmzntn,001,0,fr,2022-05-02_15h13.11.669,3-AFC_adaptive_staircase_mess,2022.1.1,29.62092327551204,
,,,,,0,0,0,0,3,0,3,0,,,,,,,,,,,,,,,,up,1000,10,0.00013930605843148847,-1,0,-1,-10,73.94806801998057,74.16517359996215,72.90758410003036,73.20825819997117,73.88986270001624,74.19732929999009,None,None,up,1,1.3637623999966308,72.93673319998197,None,None,None,,,,,,,cmzntn,001,0,fr,2022-05-02_15h13.11.669,3-AFC_adaptive_staircase_mess,2022.1.1,29.62092327551204,
,,,,,0,0,0,0,4,0,4,0,,,,,,,,,,,,,,,,left,1000,0,4.405244365040069e-05,-1,0,-1,-10,75.84500261994545,76.06772749999072,75.81591729994398,76.12599710002542,None,None,None,None,left,1,0.5178249999880791,75.84734540001955,None,None,None,,,,,,,cmzntn,001,0,fr,2022-05-02_15h13.11.669,3-AFC_adaptive_staircase_mess,2022.1.1,29.62092327551204,
,,,,,0,0,0,0,5,0,5,0,,,,,,,,,,,,,,,,right,1000,0,4.405244365040069e-05,-1,0,-1,-10,79.92525931999553,None,77.88215840002522,78.18460499995854,78.86909629998263,79.18912380002439,79.86472489999142,80.17995100002736,right,1,2.4666916000423953,77.91309950000141,None,80.41293780005071,None,,,,,,,cmzntn,001,0,fr,2022-05-02_15h13.11.669,3-AFC_adaptive_staircase_mess,2022.1.1,29.62092327551204,
,,,,,0,0,0,0,6,0,6,0,,,,,,,,,,,,,,,,up,1000,-10,1.3930605843148848e-05,-1,0,-1,-10,82.91975632000249,None,81.88425709994044,82.20293659996241,82.89067100000102,83.20039599994197,83.8706498000538,84.20103130000643,left,0,4.258897099993192,81.9140396999428,None,84.41273950005416,None,,,,,,,cmzntn,001,0,fr,2022-05-02_15h13.11.669,3-AFC_adaptive_staircase_mess,2022.1.1,29.62092327551204,
,,,,,0,0,0,0,7,0,7,0,,,,,,,,,,,,,,,,up,1000,-5,2.4772509540239506e-05,1,1,1,5,88.72424832002726,88.94639569998253,87.67143380001653,87.97706639999524,88.6668569999747,88.97924889996648,89.66829049994703,None,up,1,2.073084600036964,87.73192649998236,None,None,None,,,,,,,cmzntn,001,0,fr,2022-05-02_15h13.11.669,3-AFC_adaptive_staircase_mess,2022.1.1,29.62092327551204,
,,,,,0,0,0,0,8,0,8,0,,,,,,,,,,,,,,,,left,1000,-5,2.4772509540239506e-05,1,1,1,5,91.34782302000094,91.56440479995217,91.28927069995552,91.59146330005024,92.2916269999696,92.62044550001156,93.30542510002851,93.62963500001933,left,1,4.601205900078639,91.347003199975,None,93.83885349996854,None,,,,,,,cmzntn,001,0,fr,2022-05-02_15h13.11.669,3-AFC_adaptive_staircase_mess,2022.1.1,29.62092327551204,
,,,,,0,0,0,0,9,0,9,0,,,,,,,,,,,,,,,,up,1000,-15,7.833755350540743e-06,-1,2,-1,-5.0,98.48612592001446,None,97.46100669994485,97.76800359995104,98.45704060001299,98.79148320003878,99.46095320000313,99.79213009995874,left,0,4.169298600056209,97.49145820003469,None,99.98690839996561,None,,,,,,,cmzntn,001,0,fr,2022-05-02_15h13.11.669,3-AFC_adaptive_staircase_mess,2022.1.1,29.62092327551204,
,,,,,0,0,0,0,10,0,10,0,,,,,,,,,,,,,,,,right,1000,-12.5,1.0446480654270193e-05,1,3,1,2.5,105.17623231995385,None,103.14382050000131,103.44554870005231,104.12879069999326,104.43427720002364,105.11761560000014,105.42703949997667,right,1,2.676854299963452,103.17637240001932,None,105.69154000002891,None,,,,,,,cmzntn,001,0,fr,2022-05-02_15h13.11.669,3-AFC_adaptive_staircase_mess,2022.1.1,29.62092327551204,
,,,,,0,0,0,0,11,0,11,0,,,,,,,,,,,,,,,,left,1000,-12.5,1.0446480654270193e-05,1,3,1,2.5,107.40397721999325,None,107.34392340003978,107.65749919996597,108.33574090001639,108.66526859998703,109.33373960002791,109.65024440002162,up,0,3.00789679994341,107.40571850002743,None,109.88555120001547,None,,,,,,,cmzntn,001,0,fr,2022-05-02_15h13.11.669,3-AFC_adaptive_staircase_mess,2022.1.1,29.62092327551204,
,,,,,0,0,0,0,12,0,12,0,,,,,,,,,,,,,,,,left,1000,-10.0,1.3930605843148848e-05,1,3,1,2.5,111.93636751994491,112.15881860000081,111.86910140002146,112.18786419997923,112.88271719997283,113.18862369994167,113.89633260003757,114.19551530003082,up,0,2.777235299930908,111.93960020004306,None,114.4347852000501,None,,,,,,,cmzntn,001,0,fr,2022-05-02_15h13.11.669,3-AFC_adaptive_staircase_mess,2022.1.1,29.62092327551204,
,,,,,0,0,0,0,13,0,13,0,,,,,,,,,,,,,,,,up,1000,-7.5,1.8576761454858622e-05,1,3,1,2.5,117.22321062004194,117.44307279994246,116.21048600005452,116.53685549995862,117.19412530004047,117.50238429999445,118.17528209998272,118.500749800005,left,0,3.2321007000282407,116.23679350002203,None,118.73628059995826,None,,,,,,,cmzntn,001,0,fr,2022-05-02_15h13.11.669,3-AFC_adaptive_staircase_mess,2022.1.1,29.62092327551204,
,,,,,0,0,0,0,14,0,14,0,,,,,,,,,,,,,,,,up,1000,-5.0,2.4772509540239506e-05,1,3,1,2.5,121.99262332001236,122.2091444999678,120.9404728000518,121.26212119997945,121.93527689995244,122.23665570002049,None,None,up,1,1.7361015999922529,120.99654199997894,None,None,None,,,,,,,cmzntn,001,0,fr,2022-05-02_15h13.11.669,3-AFC_adaptive_staircase_mess,2022.1.1,29.62092327551204,
,,,,,0,0,0,0,15,0,15,0,,,,,,,,,,,,,,,,up,1000,-5.0,2.4772509540239506e-05,1,3,1,2.5,125.27840422005393,125.50309280003421,124.22894739999902,124.5535953999497,125.22893099999055,125.53583479998633,126.2352292999858,126.55238050001208,left,0,3.0798342000925913,124.29224830004387,None,126.76891440001782,None,,,,,,,cmzntn,001,0,fr,2022-05-02_15h13.11.669,3-AFC_adaptive_staircase_mess,2022.1.1,29.62092327551204,
,,,,,0,0,0,0,16,0,16,0,,,,,,,,,,,,,,,,right,1000,-2.5,3.303467240037979e-05,1,3,1,2.5,130.93326122004072,None,128.85120200004894,129.15523949998897,129.86792350001633,130.1978545000311,130.8711273999652,131.19073889998253,right,1,2.706623399979435,128.92223579995334,None,131.40796450001653,None,,,,,,,cmzntn,001,0,fr,2022-05-02_15h13.11.669,3-AFC_adaptive_staircase_mess,2022.1.1,29.62092327551204,
,,,,,0,0,0,0,17,0,17,0,,,,,,,,,,,,,,,,up,1000,-2.5,3.303467240037979e-05,1,3,1,2.5,134.1714253200218,134.38904999999795,133.10880769998766,133.40970570000354,134.11392709997017,134.4151560999453,None,None,up,1,1.529298699926585,133.17152620002162,None,None,None,,,,,,,cmzntn,001,0,fr,2022-05-02_15h13.11.669,3-AFC_adaptive_staircase_mess,2022.1.1,29.62092327551204,
,,,,,0,0,0,0,18,0,18,0,,,,,,,,,,,,,,,,up,1000,-7.5,1.8576761454858622e-05,-1,4,-1,-5.0,137.23998791996854,137.46005650004372,136.17150860000402,136.49499349994585,137.17808490002062,137.48966690001544,138.18867499998305,138.51445689995307,up,1,2.92011750000529,136.2288842999842,None,138.72165520000271,None,,,,,,,cmzntn,001,0,fr,2022-05-02_15h13.11.669,3-AFC_adaptive_staircase_mess,2022.1.1,29.62092327551204,
,,,,,0,0,0,0,19,0,19,0,,,,,,,,,,,,,,,,up,1000,-7.5,1.8576761454858622e-05,-1,4,-1,-5.0,141.64981891999486,141.86953689996153,140.59899199998472,140.93671779998112,141.6207335999934,141.95193139999174,142.6067308000056,142.93325140001252,up,1,2.926228899974376,140.6709578000009,None,143.16984490002505,None,,,,,,,cmzntn,001,0,fr,2022-05-02_15h13.11.669,3-AFC_adaptive_staircase_mess,2022.1.1,29.62092327551204,
,,,,,0,0,0,0,20,0,20,0,,,,,,,,,,,,,,,,up,1000,-12.5,1.0446480654270193e-05,-1,4,-1,-5.0,146.11696612001396,None,145.0881398000056,145.40459890000056,146.0878808000125,146.39468739996664,147.0693463999778,147.39441700000316,up,1,2.6067937000188977,145.1172504000133,None,147.63213829998858,None,,,,,,,cmzntn,001,0,fr,2022-05-02_15h13.11.669,3-AFC_adaptive_staircase_mess,2022.1.1,29.62092327551204,
,,,,,0,0,0,0,21,0,21,0,,,,,,,,,,,,,,,,up,1000,-12.5,1.0446480654270193e-05,-1,4,-1,-5.0,150.24688912001437,150.46638750005513,149.18542460002936,149.50869529997,150.17512439994607,150.4955609999597,151.17727610003203,151.50204719998874,up,1,4.7556314000394195,149.24138090002816,None,151.7412773000542,None,,,,,,,cmzntn,001,0,fr,2022-05-02_15h13.11.669,3-AFC_adaptive_staircase_mess,2022.1.1,29.62092327551204,
,,,,,0,0,0,0,22,0,22,0,,,,,,,,,,,,,,,,up,1000,-17.5,5.874487774697645e-06,-1,4,-1,-5.0,156.50671091994735,None,155.46333579998463,155.77024049998727,156.4776255999459,156.800424200017,157.48462380003184,157.80676910001785,left,0,4.500201000017114,155.52905510005075,None,158.02923250000458,None,,,,,,,cmzntn,001,0,fr,2022-05-02_15h13.11.669,3-AFC_adaptive_staircase_mess,2022.1.1,29.62092327551204,
,,,,,0,0,0,0,23,0,23,0,,,,,,,,,,,,,,,,left,1000,-15.0,7.833755350540743e-06,1,5,1,2.5,161.56385141999925,161.78459309996106,161.50220129999798,161.814376299968,162.5147699000081,162.8122813999653,163.51258129999042,163.835860399995,right,0,3.711081999936141,161.5659010000527,None,164.0712115999777,None,,,,,,,cmzntn,001,0,fr,2022-05-02_15h13.11.669,3-AFC_adaptive_staircase_mess,2022.1.1,29.62092327551204,
,,,,,0,0,0,0,24,0,24,0,,,,,,,,,,,,,,,,right,1000,-12.5,1.0446480654270193e-05,1,5,1,2.5,168.82444141996092,None,166.77307029999793,167.09770779998507,167.77119560004212,168.0947627000278,168.79535609995946,169.09880579996388,left,0,3.339243200025521,166.83438110002317,None,169.33295519999228,None,,,,,,,cmzntn,001,0,fr,2022-05-02_15h13.11.669,3-AFC_adaptive_staircase_mess,2022.1.1,29.62092327551204,
,,,,,0,0,0,0,25,0,25,0,,,,,,,,,,,,,,,,right,1000,-10.0,1.3930605843148848e-05,1,5,1,2.5,173.69645222001708,173.91320189996623,171.665984799969,171.99137259996496,172.66828740003984,172.99580359994434,173.6388606999535,173.9404346999945,up,0,4.045296599972062,171.69517630001064,None,174.20478449994698,None,,,,,,,cmzntn,001,0,fr,2022-05-02_15h13.11.669,3-AFC_adaptive_staircase_mess,2022.1.1,29.62092327551204,
,,,,,0,0,0,0,26,0,26,0,,,,,,,,,,,,,,,,up,1000,-7.5,1.8576761454858622e-05,1,5,1,2.5,178.27671251997816,178.50437940005213,177.21785370004363,177.5461486999411,178.21697549999226,178.53389540000353,179.23458189994562,179.55676579999272,left,0,2.9572641999693587,177.2801556000486,None,179.76297369995154,None,,,,,,,cmzntn,001,0,fr,2022-05-02_15h13.11.669,3-AFC_adaptive_staircase_mess,2022.1.1,29.62092327551204,
,,,,,0,0,0,0,27,0,27,0,,,,,,,,,,,,,,,,right,1000,-5.0,2.4772509540239506e-05,1,5,1,2.5,183.77342431996948,183.99035920004826,181.72061910002958,182.0247984000016,182.7324335000012,183.05853599996772,183.71293919999152,184.01792130002286,left,0,3.2541391000850126,181.78346159996,None,184.28138760000002,None,,,,,,,cmzntn,001,0,fr,2022-05-02_15h13.11.669,3-AFC_adaptive_staircase_mess,2022.1.1,29.62092327551204,
,,,,,0,0,0,0,28,0,28,0,,,,,,,,,,,,,,,,up,1000,-2.5,3.303467240037979e-05,1,5,1,2.5,187.5797821199987,187.79391709994525,186.51910270005465,186.8466225999873,187.52243809995707,187.82196179998573,188.5076446000021,188.83362589997705,up,1,2.316173500032164,186.57734550000168,None,None,None,,,,,,,cmzntn,001,0,fr,2022-05-02_15h13.11.669,3-AFC_adaptive_staircase_mess,2022.1.1,29.62092327551204,
,,,,,0,0,0,0,29,0,29,0,,,,,,,,,,,,,,,,left,1000,-2.5,3.303467240037979e-05,1,5,1,2.5,190.43940642003435,190.6530426000245,190.38112579996232,190.6804905999452,191.3744902999606,191.6999512000475,None,None,left,1,1.5726825000019744,190.44006729999091,None,None,None,,,,,,,cmzntn,001,0,fr,2022-05-02_15h13.11.669,3-AFC_adaptive_staircase_mess,2022.1.1,29.62092327551204,
,,,,,0,0,0,0,30,0,30,0,,,,,,,,,,,,,,,,right,1000,-7.5,1.8576761454858622e-05,-1,6,-1,-5.0,195.5185964199947,195.73551979998592,193.4801170999417,193.80704420001712,194.47659099998418,194.79389790003188,195.48951109999325,195.79236870002933,right,1,3.0035765999928117,193.53787759994157,None,196.02906850003637,None,,,,,,,cmzntn,001,0,fr,2022-05-02_15h13.11.669,3-AFC_adaptive_staircase_mess,2022.1.1,29.62092327551204,
,,,,,1,0,1,0,0,0,0,0,,,,,,,,,,,,,[],[],10,up,1500,30,0.001527460556607757,0,0,-1,10,202.87417012003715,203.09803540003486,201.8067916999571,202.13004289998207,202.81184109998867,203.12683239998296,None,None,up,1,1.5249398000305519,201.86317769996822,None,None,None,space,3.7626027000369504,197.59332189999986,None,197.59332189999986,None,cmzntn,001,0,fr,2022-05-02_15h13.11.669,3-AFC_adaptive_staircase_mess,2022.1.1,29.62092327551204,
,,,,,1,0,1,0,1,0,1,0,,,,,,,,,,,,,,,,left,1500,30,0.001527460556607757,0,0,-1,10,204.89821071997284,205.11338959995192,204.84125229995698,205.14017280004919,None,None,None,None,left,1,0.47190919995773584,204.9006640999578,None,None,None,,,,,,,cmzntn,001,0,fr,2022-05-02_15h13.11.669,3-AFC_adaptive_staircase_mess,2022.1.1,29.62092327551204,
,,,,,1,0,1,0,2,0,2,0,,,,,,,,,,,,,,,,up,1500,10,0.0001527460556607757,-1,0,-1,-10,207.91161871997173,None,206.8524357000133,207.18318349996116,207.8532054000534,208.16101839998737,None,None,up,1,1.499987299903296,206.91307430004235,None,None,None,,,,,,,cmzntn,001,0,fr,2022-05-02_15h13.11.669,3-AFC_adaptive_staircase_mess,2022.1.1,29.62092327551204,
,,,,,1,0,1,0,3,0,3,0,,,,,,,,,,,,,,,,left,1500,10,0.0001527460556607757,-1,0,-1,-10,209.94117451999335,210.1543317999458,209.8700543999439,210.18018619995564,None,None,None,None,left,1,0.45584100007545203,209.9403992999578,None,None,None,,,,,,,cmzntn,001,0,fr,2022-05-02_15h13.11.669,3-AFC_adaptive_staircase_mess,2022.1.1,29.62092327551204,
,,,,,1,0,1,0,4,0,4,0,,,,,,,,,,,,,,,,right,1500,0,4.830254394949071e-05,-1,0,-1,-10,213.9497121200431,214.17221510002855,211.8816657999996,212.20437890000176,212.8794255000539,213.18888849997893,213.88856540003326,214.2025310000172,right,1,2.743704600026831,211.94128989998717,None,214.43905889999587,None,,,,,,,cmzntn,001,0,fr,2022-05-02_15h13.11.669,3-AFC_adaptive_staircase_mess,2022.1.1,29.62092327551204,
,,,,,1,0,1,0,5,0,5,0,,,,,,,,,,,,,,,,right,1500,0,4.830254394949071e-05,-1,0,-1,-10,218.21004782004746,218.42622429993935,216.1613270000089,216.49251799995545,217.1788403999526,217.48037570004817,218.180962500046,218.48155559995212,right,1,2.399133399943821,216.22137559996918,None,None,None,,,,,,,cmzntn,001,0,fr,2022-05-02_15h13.11.669,3-AFC_adaptive_staircase_mess,2022.1.1,29.62092327551204,
,,,,,1,0,1,0,6,0,6,0,,,,,,,,,,,,,,,,right,1500,-10,1.527460556607758e-05,-1,0,-1,-10,222.14353421998675,222.3641598999966,220.0888527999632,220.41238039999735,221.08800879993942,221.41259980003815,222.0847639000276,222.3914774999721,right,1,2.2672602999955416,220.1459972000448,None,None,None,,,,,,,cmzntn,001,0,fr,2022-05-02_15h13.11.669,3-AFC_adaptive_staircase_mess,2022.1.1,29.62092327551204,
,,,,,1,0,1,0,7,0,7,0,,,,,,,,,,,,,,,,right,1500,-10,1.527460556607758e-05,-1,0,-1,-10,225.91013441996182,None,223.88279039994814,224.18392740003765,224.86009940004442,225.18501040001865,225.88104909996036,226.2067689000396,left,0,2.775098399957642,223.90957110002637,None,226.42898680001963,None,,,,,,,cmzntn,001,0,fr,2022-05-02_15h13.11.669,3-AFC_adaptive_staircase_mess,2022.1.1,29.62092327551204,
,,,,,1,0,1,0,8,0,8,0,,,,,,,,,,,,,,,,left,1500,-5,2.716251657462168e-05,1,1,1,5,228.23108202002476,228.45259729993995,228.17030580004212,228.48294430004898,229.19602250005119,229.52258350001648,230.17663130001165,230.5027776999632,right,0,4.372299000038765,228.23255870002322,None,230.73771689995192,None,,,,,,,cmzntn,001,0,fr,2022-05-02_15h13.11.669,3-AFC_adaptive_staircase_mess,2022.1.1,29.62092327551204,
,,,,,1,0,1,0,9,0,9,0,,,,,,,,,,,,,,,,left,1500,0,4.830254394949071e-05,1,1,1,5,234.12668701999354,234.34343879995868,234.06635510001797,234.3706027000444,235.0728599200258,None,None,None,left,1,0.9104789999546483,234.12590750004165,None,None,None,,,,,,,cmzntn,001,0,fr,2022-05-02_15h13.11.669,3-AFC_adaptive_staircase_mess,2022.1.1,29.62092327551204,
,,,,,1,0,1,0,10,0,10,0,,,,,,,,,,,,,,,,up,1500,0,4.830254394949071e-05,1,1,1,5,237.56830412002745,None,236.52423860004637,236.8479374999879,237.51108660001773,237.828162800055,None,None,up,1,1.5415847999975085,236.58204590005334,None,None,None,,,,,,,cmzntn,001,0,fr,2022-05-02_15h13.11.669,3-AFC_adaptive_staircase_mess,2022.1.1,29.62092327551204,
,,,,,1,0,1,0,11,0,11,0,,,,,,,,,,,,,,,,up,1500,-10,1.527460556607758e-05,-1,2,-1,-5.0,240.66215521998237,None,239.61853430001065,239.92339609994087,240.6330698999809,240.95679209998343,241.6438618999673,241.9429655999411,left,0,9.737447799998336,239.68324120005127,None,242.1829288000008,None,,,,,,,cmzntn,001,0,fr,2022-05-02_15h13.11.669,3-AFC_adaptive_staircase_mess,2022.1.1,29.62092327551204,
,,,,,1,0,1,0,12,0,12,0,,,,,,,,,,,,,,,,up,1500,-7.5,2.036901389020565e-05,1,3,1,2.5,251.9678757200483,252.18882150005084,250.91541270003654,251.2378474000143,251.91091450001113,252.21431599999778,252.9174914000323,253.21644360001665,up,1,3.1059298999607563,250.97066520003136,None,253.45103700004984,None,,,,,,,cmzntn,001,0,fr,2022-05-02_15h13.11.669,3-AFC_adaptive_staircase_mess,2022.1.1,29.62092327551204,
,,,,,1,0,1,0,13,0,13,0,,,,,,,,,,,,,,,,left,1500,-7.5,2.036901389020565e-05,1,3,1,2.5,255.62720231995917,255.843427099986,255.565965399961,255.875026899972,256.55460919998586,256.865060799988,257.5659556000028,257.8912463999586,left,1,3.0695581000763923,255.63126769999508,None,258.1262343999697,None,,,,,,,cmzntn,001,0,fr,2022-05-02_15h13.11.669,3-AFC_adaptive_staircase_mess,2022.1.1,29.62092327551204,
,,,,,1,0,1,0,14,0,14,0,,,,,,,,,,,,,,,,up,1500,-12.5,1.1454338263838873e-05,-1,4,-1,-5.0,261.2331111199921,261.448551199981,260.19363059999887,260.4998126999708,261.17266369995195,261.4802009999985,262.18370069994126,262.4931436999468,right,0,3.355148300062865,260.22599840001203,None,262.73529330000747,None,,,,,,,cmzntn,001,0,fr,2022-05-02_15h13.11.669,3-AFC_adaptive_staircase_mess,2022.1.1,29.62092327551204,
,,,,,1,0,1,0,15,0,15,0,,,,,,,,,,,,,,,,up,1500,-10.0,1.527460556607758e-05,1,5,1,2.5,266.10708151995203,None,265.0639200999867,265.3749410000164,266.0779961999506,266.38732720003463,267.06675540003926,267.37757290003356,left,0,3.0808199000312015,265.12380379997194,None,267.6130903000012,None,,,,,,,cmzntn,001,0,fr,2022-05-02_15h13.11.669,3-AFC_adaptive_staircase_mess,2022.1.1,29.62092327551204,
,,,,,1,0,1,0,16,0,16,0,,,,,,,,,,,,,,,,up,1500,-7.5,2.036901389020565e-05,1,5,1,2.5,270.74294622002634,None,269.6689142000396,269.97996689996216,270.68294990004506,270.993002000032,271.66706340003293,271.9809434999479,left,0,2.9251586999744177,269.7277751000365,None,272.2491335000377,None,,,,,,,cmzntn,001,0,fr,2022-05-02_15h13.11.669,3-AFC_adaptive_staircase_mess,2022.1.1,29.62092327551204,
,,,,,1,0,1,0,17,0,17,0,,,,,,,,,,,,,,,,right,1500,-5.0,2.716251657462168e-05,1,5,1,2.5,276.17266911994665,None,274.1428839999717,274.4503166000359,275.1520010000095,275.4567269999534,276.1435837999452,276.46521619998384,up,0,2.9132576999254525,274.17185030004475,None,276.67596629995387,None,,,,,,,cmzntn,001,0,fr,2022-05-02_15h13.11.669,3-AFC_adaptive_staircase_mess,2022.1.1,29.62092327551204,
,,,,,1,0,1,0,18,0,18,0,,,,,,,,,,,,,,,,up,1500,-2.5,3.622179800374953e-05,1,5,1,2.5,279.6181854199851,279.841167400009,278.55158730002586,278.8540872000158,279.55633129994385,279.8693442000076,280.5748347999761,None,up,1,1.9614941999316216,278.61136780004017,None,None,None,,,,,,,cmzntn,001,0,fr,2022-05-02_15h13.11.669,3-AFC_adaptive_staircase_mess,2022.1.1,29.62092327551204,
,,,,,1,0,1,0,19,0,19,0,,,,,,,,,,,,,,,,up,1500,-2.5,3.622179800374953e-05,1,5,1,2.5,283.0899821200175,None,282.02807300002314,282.3473848999711,283.02919250004925,283.34408409998287,None,None,up,1,1.662271400098689,282.0940065999748,None,None,None,,,,,,,cmzntn,001,0,fr,2022-05-02_15h13.11.669,3-AFC_adaptive_staircase_mess,2022.1.1,29.62092327551204,
,,,,,1,0,1,0,20,0,20,0,,,,,,,,,,,,,,,,left,1500,-7.5,2.036901389020565e-05,-1,6,-1,-5.0,285.2720548200188,None,285.24296950001735,285.55061190004926,286.2287179999985,286.5632040000055,287.2225768000353,287.52987630001735,right,0,3.267797299893573,285.2729438999668,None,287.794032100006,None,,,,,,,cmzntn,001,0,fr,2022-05-02_15h13.11.669,3-AFC_adaptive_staircase_mess,2022.1.1,29.62092327551204,
,,,,,2,0,2,0,0,0,0,0,,,,,,,,,,,,,[],[],10,left,2000,30,0.0023657562948074026,0,0,-1,10,292.1983833200531,292.42134809994604,292.16929800005164,292.477216499974,None,None,None,None,left,1,0.6432147000450641,292.2014266999904,None,None,None,space,2.0680395000381395,289.6408426000271,None,289.6408426000271,None,cmzntn,001,0,fr,2022-05-02_15h13.11.669,3-AFC_adaptive_staircase_mess,2022.1.1,29.62092327551204,
,,,,,2,0,2,0,1,0,1,0,,,,,,,,,,,,,,,,left,2000,30,0.0023657562948074026,0,0,-1,10,294.3995274199871,294.618503900012,294.37044209998567,294.6786295999773,None,None,None,None,left,1,0.3474661000072956,294.4016062000301,None,None,None,,,,,,,cmzntn,001,0,fr,2022-05-02_15h13.11.669,3-AFC_adaptive_staircase_mess,2022.1.1,29.62092327551204,
,,,,,2,0,2,0,2,0,2,0,,,,,,,,,,,,,,,,up,2000,10,0.00023657562948074026,-1,0,-1,-10,297.27642642001155,None,296.24144280003384,296.5536902999738,297.2473411000101,297.551912899944,None,None,up,1,1.4027615999802947,296.2744113999652,None,None,None,,,,,,,cmzntn,001,0,fr,2022-05-02_15h13.11.669,3-AFC_adaptive_staircase_mess,2022.1.1,29.62092327551204,
,,,,,2,0,2,0,3,0,3,0,,,,,,,,,,,,,,,,left,2000,10,0.00023657562948074026,-1,0,-1,-10,299.20496101996395,None,299.1758756999625,299.4841639000224,None,None,None,None,left,1,0.467263099970296,299.2094134000363,None,None,None,,,,,,,cmzntn,001,0,fr,2022-05-02_15h13.11.669,3-AFC_adaptive_staircase_mess,2022.1.1,29.62092327551204,
,,,,,2,0,2,0,4,0,4,0,,,,,,,,,,,,,,,,left,2000,0,7.481178280472168e-05,-1,0,-1,-10,301.20648672005626,301.4262063000351,301.1446075999411,301.45775429997593,None,None,None,None,left,1,0.452402500086464,301.20790999999736,None,None,None,,,,,,,cmzntn,001,0,fr,2022-05-02_15h13.11.669,3-AFC_adaptive_staircase_mess,2022.1.1,29.62092327551204,
,,,,,2,0,2,0,5,0,5,0,,,,,,,,,,,,,,,,left,2000,0,7.481178280472168e-05,-1,0,-1,-10,303.2082601200556,303.4254107000306,303.14676619996317,303.457369599957,None,None,None,None,left,1,0.3688237000023946,303.21225720003713,None,None,None,,,,,,,cmzntn,001,0,fr,2022-05-02_15h13.11.669,3-AFC_adaptive_staircase_mess,2022.1.1,29.62092327551204,
,,,,,2,0,2,0,6,0,6,0,,,,,,,,,,,,,,,,left,2000,-10,2.3657562948074015e-05,-1,0,-1,-10,305.11013522003776,305.3286318000173,305.0810499000363,305.38984199997503,None,None,None,None,left,1,0.8851275000488386,305.11172429996077,None,None,None,,,,,,,cmzntn,001,0,fr,2022-05-02_15h13.11.669,3-AFC_adaptive_staircase_mess,2022.1.1,29.62092327551204,
,,,,,2,0,2,0,7,0,7,0,,,,,,,,,,,,,,,,right,2000,-10,2.3657562948074015e-05,-1,0,-1,-10,309.55325611999723,None,307.49836279999,307.8197653000243,308.48573289997876,308.7903545999434,309.4915290999925,309.8201730999863,right,1,2.6317725999979302,307.5569008999737,None,310.0575707999524,None,,,,,,,cmzntn,001,0,fr,2022-05-02_15h13.11.669,3-AFC_adaptive_staircase_mess,2022.1.1,29.62092327551204,
,,,,,2,0,2,0,8,0,8,0,,,,,,,,,,,,,,,,up,2000,-20,7.481178280472164e-06,-1,0,-1,-10,312.7017094200011,None,311.66054139996413,311.98047640000004,312.64263290003873,312.9669236999471,313.66506210004445,313.982057300047,right,0,4.030943599995226,311.72517460002564,None,314.2274180999957,None,,,,,,,cmzntn,001,0,fr,2022-05-02_15h13.11.669,3-AFC_adaptive_staircase_mess,2022.1.1,29.62092327551204,
,,,,,2,0,2,0,9,0,9,0,,,,,,,,,,,,,,,,left,2000,-15,1.3303625298994042e-05,1,1,1,5,317.2889395199483,317.50892329995986,317.2267083999468,317.5411435000133,318.2317913000006,318.5513783999486,319.2364547000034,319.56448379997164,up,0,2.7054393999278545,317.29107220005244,None,319.7772964000469,None,,,,,,,cmzntn,001,0,fr,2022-05-02_15h13.11.669,3-AFC_adaptive_staircase_mess,2022.1.1,29.62092327551204,
,,,,,2,0,2,0,10,0,10,0,,,,,,,,,,,,,,,,left,2000,-10,2.3657562948074015e-05,1,1,1,5,321.53949802001006,None,321.4792977999896,321.80492180003785,322.4780611000024,322.7974745000247,323.46560530003626,323.77075489994604,left,1,2.794570100028068,321.5387069999706,None,324.01875729998574,None,,,,,,,cmzntn,001,0,fr,2022-05-02_15h13.11.669,3-AFC_adaptive_staircase_mess,2022.1.1,29.62092327551204,
,,,,,2,0,2,0,11,0,11,0,,,,,,,,,,,,,,,,right,2000,-10,2.3657562948074015e-05,1,1,1,5,327.8669719199417,None,325.7993354999926,326.10474600002635,326.79478360002395,327.10376540001016,327.80542710004374,328.1188986999914,left,0,3.115181799978018,325.85699180001393,None,328.3692451999523,None,,,,,,,cmzntn,001,0,fr,2022-05-02_15h13.11.669,3-AFC_adaptive_staircase_mess,2022.1.1,29.62092327551204,
,,,,,2,0,2,0,12,0,12,0,,,,,,,,,,,,,,,,right,2000,-5,4.206975708225974e-05,1,1,1,5,332.5093764199875,None,330.4571029000217,330.7783384999493,331.45724100002553,331.77752500004135,332.44724430004135,332.7755071000429,right,1,2.6506789999548346,330.51485899998806,None,333.017534899991,None,,,,,,,cmzntn,001,0,fr,2022-05-02_15h13.11.669,3-AFC_adaptive_staircase_mess,2022.1.1,29.62092327551204,
,,,,,2,0,2,0,13,0,13,0,,,,,,,,,,,,,,,,right,2000,-5,4.206975708225974e-05,1,1,1,5,336.7144448200008,None,334.64455049997196,334.9486127999844,335.6669788999716,335.98111719998997,336.6559578999877,336.98077929997817,up,0,2.9180697000119835,334.70979899994563,None,337.2230811000336,None,,,,,,,cmzntn,001,0,fr,2022-05-02_15h13.11.669,3-AFC_adaptive_staircase_mess,2022.1.1,29.62092327551204,
,,,,,2,0,2,0,14,0,14,0,,,,,,,,,,,,,,,,left,2000,0,7.481178280472168e-05,1,1,1,5,339.1697197199566,None,339.11157219996676,339.4291624999605,None,None,None,None,left,1,0.8743617000291124,339.1699908999726,None,None,None,,,,,,,cmzntn,001,0,fr,2022-05-02_15h13.11.669,3-AFC_adaptive_staircase_mess,2022.1.1,29.62092327551204,
,,,,,2,0,2,0,15,0,15,0,,,,,,,,,,,,,,,,right,2000,0,7.481178280472168e-05,1,1,1,5,343.58186682004015,343.80029499996454,341.51000560005195,341.8252184999874,342.5152526999591,342.82045420003124,343.5196271999739,343.8332301999908,right,1,2.429211699985899,341.568356600008,None,None,None,,,,,,,cmzntn,001,0,fr,2022-05-02_15h13.11.669,3-AFC_adaptive_staircase_mess,2022.1.1,29.62092327551204,
,,,,,2,0,2,0,16,0,16,0,,,,,,,,,,,,,,,,up,2000,-10,2.3657562948074015e-05,-1,2,-1,-5.0,346.545633620047,None,345.4989330000244,345.8232275999617,346.4851167999441,346.8059657999547,347.49392599996645,347.8259903000435,left,0,3.6145288998959586,345.53312589996494,None,348.0648149000481,None,,,,,,,cmzntn,001,0,fr,2022-05-02_15h13.11.669,3-AFC_adaptive_staircase_mess,2022.1.1,29.62092327551204,
,,,,,2,0,2,0,17,0,17,0,,,,,,,,,,,,,,,,up,2000,-7.5,3.154786722400965e-05,1,3,1,2.5,351.68348441999404,None,350.67089169996325,350.9724963000044,351.6543990999926,351.9743741999846,352.63353680004366,352.9398596000392,left,0,3.0063505999278277,350.7022599000484,None,353.20745049999095,None,,,,,,,cmzntn,001,0,fr,2022-05-02_15h13.11.669,3-AFC_adaptive_staircase_mess,2022.1.1,29.62092327551204,
,,,,,2,0,2,0,18,0,18,0,,,,,,,,,,,,,,,,up,2000,-5.0,4.206975708225974e-05,1,3,1,2.5,356.22627431997097,None,355.1728088000091,355.5047406000085,356.1971889999695,356.50907389994245,None,None,up,1,1.7831792999058962,355.2372428999515,None,None,None,,,,,,,cmzntn,001,0,fr,2022-05-02_15h13.11.669,3-AFC_adaptive_staircase_mess,2022.1.1,29.62092327551204,
,,,,,2,0,2,0,19,0,19,0,,,,,,,,,,,,,,,,right,2000,-5.0,4.206975708225974e-05,1,3,1,2.5,360.5476959200343,None,358.48264579998795,358.81355960003566,359.4802101999521,359.8160195000237,360.4847600000212,360.8147241000552,left,0,3.0779202000703663,358.5517938999692,None,361.0329023000086,None,,,,,,,cmzntn,001,0,fr,2022-05-02_15h13.11.669,3-AFC_adaptive_staircase_mess,2022.1.1,29.62092327551204,
,,,,,2,0,2,0,20,0,20,0,,,,,,,,,,,,,,,,left,2000,-2.5,5.610092271509818e-05,1,3,1,2.5,363.1726878199726,None,363.1098092000466,363.44601740001235,364.1176746999845,364.4309568000026,365.1200839000521,365.4462827000534,right,0,3.297971500083804,363.17781320004724,None,365.6765009999508,None,,,,,,,cmzntn,001,0,fr,2022-05-02_15h13.11.669,3-AFC_adaptive_staircase_mess,2022.1.1,29.62092327551204,
,,,,,2,0,2,0,21,0,21,0,,,,,,,,,,,,,,,,up,2000,0.0,7.481178280472168e-05,1,3,1,2.5,369.0126036199974,None,367.98193150002044,368.30953540001065,368.9835182999959,369.3133781000506,None,None,up,1,1.805398599943146,368.01448520005215,None,None,None,,,,,,,cmzntn,001,0,fr,2022-05-02_15h13.11.669,3-AFC_adaptive_staircase_mess,2022.1.1,29.62092327551204,
,,,,,2,0,2,0,22,0,22,0,,,,,,,,,,,,,,,,left,2000,0.0,7.481178280472168e-05,1,3,1,2.5,371.3768594200257,None,371.31641540001146,371.63325009995606,372.3380251999479,372.651738799992,None,None,left,1,1.5270245999563485,371.3810141000431,None,None,None,,,,,,,cmzntn,001,0,fr,2022-05-02_15h13.11.669,3-AFC_adaptive_staircase_mess,2022.1.1,29.62092327551204,
,,,,,2,0,2,0,23,0,23,0,,,,,,,,,,,,,,,,up,2000,-5.0,4.206975708225974e-05,-1,4,-1,-5.0,375.46130012003704,None,374.40185410005506,374.71911409997847,375.4023450999521,375.72196939995047,376.41859549994115,376.72514660004526,left,0,3.054618600057438,374.461260400014,None,376.95478000002913,None,,,,,,,cmzntn,001,0,fr,2022-05-02_15h13.11.669,3-AFC_adaptive_staircase_mess,2022.1.1,29.62092327551204,
,,,,,2,0,2,0,24,0,24,0,,,,,,,,,,,,,,,,right,2000,-2.5,5.610092271509818e-05,1,5,1,2.5,381.05843962000216,381.2880142000504,378.99094859999605,379.324761099997,380.00174420000985,380.32550989999436,380.9987878999673,381.31637639994733,right,1,2.492593099945225,379.05612610001117,None,381.558914000052,None,,,,,,,cmzntn,001,0,fr,2022-05-02_15h13.11.669,3-AFC_adaptive_staircase_mess,2022.1.1,29.62092327551204,
,,,,,2,0,2,0,25,0,25,0,,,,,,,,,,,,,,,,right,2000,-2.5,5.610092271509818e-05,1,5,1,2.5,385.07477581994607,None,383.0369973999914,383.34532760002185,384.0193874000106,384.32513250003103,385.01552300003823,385.3423928000266,right,1,2.9127098000608385,383.0678493999876,None,385.59642279997934,None,,,,,,,cmzntn,001,0,fr,2022-05-02_15h13.11.669,3-AFC_adaptive_staircase_mess,2022.1.1,29.62092327551204,
,,,,,2,0,2,0,26,0,26,0,,,,,,,,,,,,,,,,right,2000,-7.5,3.154786722400965e-05,-1,6,-1,-5.0,389.5242931199493,None,387.49691250000615,387.8062492000172,388.4770511999959,388.7920798000414,389.4952077999478,389.8079444000032,left,0,3.1091445999918506,387.5277325999923,None,390.02427870000247,None,,,,,,,cmzntn,001,0,fr,2022-05-02_15h13.11.669,3-AFC_adaptive_staircase_mess,2022.1.1,29.62092327551204,
,,,,,3,0,3,0,0,0,0,0,,,,,,,,,,,,,[],[],10,up,3000,30,0.001733684252262658,0,0,-1,10,394.6787697199499,394.8992176000029,393.6291322000325,393.95027449994814,394.6171003000345,394.93033680005465,None,None,up,1,1.3592463999520987,393.66071630001534,None,None,None,space,1.4561407000292093,391.7081207999727,None,391.7081207999727,None,cmzntn,001,0,fr,2022-05-02_15h13.11.669,3-AFC_adaptive_staircase_mess,2022.1.1,29.62092327551204,
,,,,,3,0,3,0,1,0,1,0,,,,,,,,,,,,,,,,up,3000,30,0.001733684252262658,0,0,-1,10,397.5588271200424,None,396.50063839997165,396.8216071999632,397.49783250002656,397.8215452999575,None,None,up,1,1.318199299974367,396.56592459999956,None,None,None,,,,,,,cmzntn,001,0,fr,2022-05-02_15h13.11.669,3-AFC_adaptive_staircase_mess,2022.1.1,29.62092327551204,
,,,,,3,0,3,0,2,0,2,0,,,,,,,,,,,,,,,,left,3000,10,0.00017336842522626576,-1,0,-1,-10,399.4219798200531,None,399.35698399995454,399.6935955999652,None,None,None,None,left,1,0.573464100016281,399.42427269998007,None,None,None,,,,,,,cmzntn,001,0,fr,2022-05-02_15h13.11.669,3-AFC_adaptive_staircase_mess,2022.1.1,29.62092327551204,
,,,,,3,0,3,0,3,0,3,0,,,,,,,,,,,,,,,,left,3000,10,0.00017336842522626576,-1,0,-1,-10,401.51448982004075,None,401.4854045000393,401.81508690002374,None,None,None,None,left,1,0.30299210001248866,401.5180818999652,None,None,None,,,,,,,cmzntn,001,0,fr,2022-05-02_15h13.11.669,3-AFC_adaptive_staircase_mess,2022.1.1,29.62092327551204,
,,,,,3,0,3,0,4,0,4,0,,,,,,,,,,,,,,,,left,3000,0,5.482390980715923e-05,-1,0,-1,-10,403.3748096200172,None,403.3143964000046,403.6373865000205,None,None,None,None,left,1,0.4075699000386521,403.364598199958,None,None,None,,,,,,,cmzntn,001,0,fr,2022-05-02_15h13.11.669,3-AFC_adaptive_staircase_mess,2022.1.1,29.62092327551204,
,,,,,3,0,3,0,5,0,5,0,,,,,,,,,,,,,,,,right,3000,0,5.482390980715923e-05,-1,0,-1,-10,None,None,405.2784418000374,405.61066180001944,None,None,None,None,left,0,0.39653570007067174,405.3124394000042,None,None,None,,,,,,,cmzntn,001,0,fr,2022-05-02_15h13.11.669,3-AFC_adaptive_staircase_mess,2022.1.1,29.62092327551204,
,,,,,3,0,3,0,6,0,6,0,,,,,,,,,,,,,,,,right,3000,5,9.749222998790222e-05,1,1,1,5,409.2807713200338,None,407.2011258000275,407.5510264999466,408.1891651999904,408.5148038000334,409.18525099998806,409.52094630000647,right,1,2.408779799938202,407.267614100012,None,409.73544831997714,None,,,,,,,cmzntn,001,0,fr,2022-05-02_15h13.11.669,3-AFC_adaptive_staircase_mess,2022.1.1,29.62092327551204,
,,,,,3,0,3,0,7,0,7,0,,,,,,,,,,,,,,,,left,3000,5,9.749222998790222e-05,1,1,1,5,411.2479332200484,411.46723089995794,411.18531700002495,411.50014939997345,None,None,None,None,left,1,0.6946749000344425,411.253720000037,None,None,None,,,,,,,cmzntn,001,0,fr,2022-05-02_15h13.11.669,3-AFC_adaptive_staircase_mess,2022.1.1,29.62092327551204,
,,,,,3,0,3,0,8,0,8,0,,,,,,,,,,,,,,,,right,3000,-5,3.082975009307411e-05,-1,2,-1,-5.0,415.4866323200287,415.7070256000152,413.4314067000523,413.75264610000886,414.43453379999846,414.74324350000825,415.4266022000229,415.7402831000509,right,1,2.9992615000810474,413.4933604999678,None,415.99072380003054,None,,,,,,,cmzntn,001,0,fr,2022-05-02_15h13.11.669,3-AFC_adaptive_staircase_mess,2022.1.1,29.62092327551204,
,,,,,3,0,3,0,9,0,9,0,,,,,,,,,,,,,,,,right,3000,-5,3.082975009307411e-05,-1,2,-1,-5.0,420.02617671997285,None,417.9614770000335,418.2957953000441,418.99660309997853,419.3126897000475,419.96214770001825,420.2923162999796,right,1,2.5132084999931976,418.02723000000697,None,420.530162799987,None,,,,,,,cmzntn,001,0,fr,2022-05-02_15h13.11.669,3-AFC_adaptive_staircase_mess,2022.1.1,29.62092327551204,
,,,,,3,0,3,0,10,0,10,0,,,,,,,,,,,,,,,,up,3000,-10.0,1.7336842522626584e-05,-1,2,-1,-5.0,423.0954369199928,None,422.03023000003304,422.3488532999763,423.0324003000278,423.36613490001764,424.02919270005077,424.350701999967,right,0,2.5221299999393523,422.09789680002723,None,424.5827893000096,None,,,,,,,cmzntn,001,0,fr,2022-05-02_15h13.11.669,3-AFC_adaptive_staircase_mess,2022.1.1,29.62092327551204,
,,,,,3,0,3,0,11,0,11,0,,,,,,,,,,,,,,,,right,3000,-7.5,2.3119051069963017e-05,1,3,1,2.5,428.16127382002304,428.38347680005245,426.10169459995814,426.43335559999105,427.1133138999576,427.4377305000089,428.1321885000216,428.4457898000255,right,1,2.787677999935113,426.1692976000486,None,428.67288159998134,None,,,,,,,cmzntn,001,0,fr,2022-05-02_15h13.11.669,3-AFC_adaptive_staircase_mess,2022.1.1,29.62092327551204,
,,,,,3,0,3,0,12,0,12,0,,,,,,,,,,,,,,,,left,3000,-7.5,2.3119051069963017e-05,1,3,1,2.5,430.503499020054,430.7218844000017,430.47441370005254,430.7790226000361,431.47537819994614,431.80848130001687,432.4632008000044,432.7740570999449,up,0,2.8158550000516698,430.5090628999751,None,433.0111788000213,None,,,,,,,cmzntn,001,0,fr,2022-05-02_15h13.11.669,3-AFC_adaptive_staircase_mess,2022.1.1,29.62092327551204,
,,,,,3,0,3,0,13,0,13,0,,,,,,,,,,,,,,,,up,3000,-5.0,3.082975009307411e-05,1,3,1,2.5,435.873262819997,436.0958970000502,434.8127674999414,435.1285327000078,435.81076459994074,436.1288123000413,436.8025439999765,437.1091130999848,up,1,2.8173651999095455,434.8756816999521,None,437.38364599994384,None,,,,,,,cmzntn,001,0,fr,2022-05-02_15h13.11.669,3-AFC_adaptive_staircase_mess,2022.1.1,29.62092327551204,
,,,,,3,0,3,0,14,0,14,0,,,,,,,,,,,,,,,,left,3000,-5.0,3.082975009307411e-05,1,3,1,2.5,439.22730572002473,None,439.1982204000233,439.51855170005,440.18495789996814,440.5169717000099,441.2017909999704,441.517580899992,left,1,2.6376102999784052,439.2303074999945,None,441.75197009998374,None,,,,,,,cmzntn,001,0,fr,2022-05-02_15h13.11.669,3-AFC_adaptive_staircase_mess,2022.1.1,29.62092327551204,
,,,,,3,0,3,0,15,0,15,0,,,,,,,,,,,,,,,,left,3000,-10.0,1.7336842522626584e-05,-1,4,-1,-5.0,443.41835542004554,None,443.35900329996366,443.68934539996553,444.3561468999833,444.687060700031,445.35416780004743,445.69048170000315,left,1,3.633331299992278,443.4191926999483,None,445.9247052000137,None,,,,,,,cmzntn,001,0,fr,2022-05-02_15h13.11.669,3-AFC_adaptive_staircase_mess,2022.1.1,29.62092327551204,
,,,,,3,0,3,0,16,0,16,0,,,,,,,,,,,,,,,,right,3000,-10.0,1.7336842522626584e-05,-1,4,-1,-5.0,450.5905366200488,450.8054022999713,448.527177699958,448.86383689998183,449.5278167000506,449.86052959994413,450.5253792000003,450.8365095000481,right,1,2.474435599986464,448.59371030004695,None,451.0961312999716,None,,,,,,,cmzntn,001,0,fr,2022-05-02_15h13.11.669,3-AFC_adaptive_staircase_mess,2022.1.1,29.62092327551204,
,,,,,3,0,3,0,17,0,17,0,,,,,,,,,,,,,,,,up,3000,-15.0,9.749222998790228e-06,-1,4,-1,-5.0,453.62519392003304,453.8446050999919,452.56177649996243,452.89603379997425,453.5621622999897,453.87481950002257,454.56597530003637,454.8969508999726,right,0,2.935209500021301,452.6291435000021,None,455.1333270999603,None,,,,,,,cmzntn,001,0,fr,2022-05-02_15h13.11.669,3-AFC_adaptive_staircase_mess,2022.1.1,29.62092327551204,
,,,,,3,0,3,0,18,0,18,0,,,,,,,,,,,,,,,,right,3000,-12.5,1.300079781582636e-05,1,5,1,2.5,459.1110880199587,None,457.034521900001,457.3688834999921,458.0375729999505,458.37252800003625,459.0468981999438,459.3752650000388,left,0,2.6086217999691144,457.1014983999776,None,459.6127683999948,None,,,,,,,cmzntn,001,0,fr,2022-05-02_15h13.11.669,3-AFC_adaptive_staircase_mess,2022.1.1,29.62092327551204,
,,,,,3,0,3,0,19,0,19,0,,,,,,,,,,,,,,,,right,3000,-10.0,1.7336842522626584e-05,1,5,1,2.5,463.2360150199849,463.454878599965,461.20501070003957,461.5058957999572,462.17250720004085,462.47284239996225,463.20692969998345,463.51556930004153,left,0,3.2044248998863623,461.2402382999426,None,463.7295779000269,None,,,,,,,cmzntn,001,0,fr,2022-05-02_15h13.11.669,3-AFC_adaptive_staircase_mess,2022.1.1,29.62092327551204,
,,,,,3,0,3,0,20,0,20,0,,,,,,,,,,,,,,,,up,3000,-7.5,2.3119051069963017e-05,1,5,1,2.5,466.9701470199972,467.19242990005296,465.9097384000197,466.247128100018,466.9078469000524,467.2221315000206,467.9157342000399,468.2490628999658,right,0,3.154192099929787,465.9781994000077,None,468.4839563999558,None,,,,,,,cmzntn,001,0,fr,2022-05-02_15h13.11.669,3-AFC_adaptive_staircase_mess,2022.1.1,29.62092327551204,
,,,,,3,0,3,0,21,0,21,0,,,,,,,,,,,,,,,,up,3000,-5.0,3.082975009307411e-05,1,5,1,2.5,471.67828842001035,None,470.61595480004326,470.94868329993915,471.61513960000593,471.948403700022,472.61772989993915,472.9496194999665,up,1,8.448048599995673,470.68412510002963,None,473.18707660003565,None,,,,,,,cmzntn,001,0,fr,2022-05-02_15h13.11.669,3-AFC_adaptive_staircase_mess,2022.1.1,29.62092327551204,
,,,,,3,0,3,0,22,0,22,0,,,,,,,,,,,,,,,,right,3000,-5.0,3.082975009307411e-05,1,5,1,2.5,482.67648121998644,None,480.64225479995366,480.959148599999,481.6277114000404,481.96044729999267,482.61578430002555,482.9389709000243,right,1,2.728796499897726,480.67543129995465,None,483.19452040002216,None,,,,,,,cmzntn,001,0,fr,2022-05-02_15h13.11.669,3-AFC_adaptive_staircase_mess,2022.1.1,29.62092327551204,
,,,,,3,0,3,0,23,0,23,0,,,,,,,,,,,,,,,,left,3000,-10.0,1.7336842522626584e-05,-1,6,-1,-5.0,484.95966831995173,485.1765841000015,484.8968749999767,485.20731359999627,485.8982324999524,486.2274523000233,486.8974194000475,487.23111389996484,right,0,4.087192200007848,484.9643353000283,None,487.4674182999879,None,,,,,,,cmzntn,001,0,fr,2022-05-02_15h13.11.669,3-AFC_adaptive_staircase_mess,2022.1.1,29.62092327551204,
,,,,,4,0,4,0,0,0,0,0,,,,,,,,,,,,,[],[],10,up,4000,30,0.0026544222211549416,0,0,-1,10,493.770636020042,None,492.7364832999883,493.07051390002016,493.70608909998555,494.0414037000155,None,None,up,1,1.4014283999567851,492.7702927000355,None,None,None,space,2.115801499923691,490.1365278000012,None,490.1365278000012,None,cmzntn,001,0,fr,2022-05-02_15h13.11.669,3-AFC_adaptive_staircase_mess,2022.1.1,29.62092327551204,
,,,,,4,0,4,0,1,0,1,0,,,,,,,,,,,,,,,,up,4000,30,0.0026544222211549416,0,0,-1,10,496.7424271200318,496.9573284999933,495.684752900037,496.0143636999419,496.67846359999385,496.9862754000351,None,None,up,1,1.290637300000526,495.74598909995984,None,None,None,,,,,,,cmzntn,001,0,fr,2022-05-02_15h13.11.669,3-AFC_adaptive_staircase_mess,2022.1.1,29.62092327551204,
,,,,,4,0,4,0,2,0,2,0,,,,,,,,,,,,,,,,up,4000,10,0.00026544222211549425,-1,0,-1,-10,499.56352491995784,499.7969982000068,498.50979699997697,498.84336669999175,499.5055452999659,499.8300981000066,None,None,up,1,1.3548055000137538,498.5769779999973,None,None,None,,,,,,,cmzntn,001,0,fr,2022-05-02_15h13.11.669,3-AFC_adaptive_staircase_mess,2022.1.1,29.62092327551204,
,,,,,4,0,4,0,3,0,3,0,,,,,,,,,,,,,,,,right,4000,10,0.00026544222211549425,-1,0,-1,-10,503.48145022003445,None,501.4399186000228,501.7460599000333,502.41601369995624,502.7475305000553,503.417361299973,503.7420661000069,right,1,2.287412399891764,501.4689070000313,None,None,None,,,,,,,cmzntn,001,0,fr,2022-05-02_15h13.11.669,3-AFC_adaptive_staircase_mess,2022.1.1,29.62092327551204,
,,,,,4,0,4,0,4,0,4,0,,,,,,,,,,,,,,,,right,4000,0,8.394020090612804e-05,-1,0,-1,-10,507.3189044199418,507.539481200045,505.2493257999886,505.58516040001996,506.2530544999754,506.5828348000068,507.25292120000813,507.5562034000177,right,1,2.3248257000232115,505.3191949999891,None,None,None,,,,,,,cmzntn,001,0,fr,2022-05-02_15h13.11.669,3-AFC_adaptive_staircase_mess,2022.1.1,29.62092327551204,
,,,,,4,0,4,0,5,0,5,0,,,,,,,,,,,,,,,,up,4000,0,8.394020090612804e-05,-1,0,-1,-10,510.1855681200279,510.4025915999664,509.12676280003507,509.45204699994065,510.1564828000264,510.46398700005375,None,None,up,1,1.4568070999812335,509.1953724999912,None,None,None,,,,,,,cmzntn,001,0,fr,2022-05-02_15h13.11.669,3-AFC_adaptive_staircase_mess,2022.1.1,29.62092327551204,
,,,,,4,0,4,0,6,0,6,0,,,,,,,,,,,,,,,,right,4000,-10,2.6544222211549425e-05,-1,0,-1,-10,514.1908138200408,514.4055519000394,512.1566400999436,512.4606242999434,513.1573960999958,513.4603085999843,514.1279100000393,514.4370423000073,right,1,2.3638126999139786,512.1927338000387,None,None,None,,,,,,,cmzntn,001,0,fr,2022-05-02_15h13.11.669,3-AFC_adaptive_staircase_mess,2022.1.1,29.62092327551204,
,,,,,4,0,4,0,7,0,7,0,,,,,,,,,,,,,,,,right,4000,-10,2.6544222211549425e-05,-1,0,-1,-10,518.0932964199922,518.3133598000277,516.0299828000134,516.3653938999632,517.0286973000038,517.3332550999476,518.033419799991,518.3404237000505,right,1,2.3480440999846905,516.0970003999537,None,None,None,,,,,,,cmzntn,001,0,fr,2022-05-02_15h13.11.669,3-AFC_adaptive_staircase_mess,2022.1.1,29.62092327551204,
,,,,,4,0,4,0,8,0,8,0,,,,,,,,,,,,,,,,left,4000,-20,8.394020090612804e-06,-1,0,-1,-10,520.0001902200049,520.2130298999837,519.9355656000553,520.2446190000046,520.9336183000123,521.2680173999397,521.936981100007,522.2663661999395,right,0,2.598424700088799,520.0056854999857,None,522.4954695999622,None,,,,,,,cmzntn,001,0,fr,2022-05-02_15h13.11.669,3-AFC_adaptive_staircase_mess,2022.1.1,29.62092327551204,
,,,,,4,0,4,0,9,0,9,0,,,,,,,,,,,,,,,,up,4000,-15,1.4926913094589802e-05,1,1,1,5,525.1702762200032,None,524.1038858999964,524.4391623999691,525.1072903999593,525.4403303000145,None,None,up,1,1.7280761000001803,524.1720753000118,None,None,None,,,,,,,cmzntn,001,0,fr,2022-05-02_15h13.11.669,3-AFC_adaptive_staircase_mess,2022.1.1,29.62092327551204,
,,,,,4,0,4,0,10,0,10,0,,,,,,,,,,,,,,,,left,4000,-15,1.4926913094589802e-05,1,1,1,5,527.4362983200001,527.6526478000451,527.3739012000151,527.6838094999548,528.3725878000259,528.6737648999551,None,None,up,0,1.7236553999828175,527.440990800038,None,None,None,,,,,,,cmzntn,001,0,fr,2022-05-02_15h13.11.669,3-AFC_adaptive_staircase_mess,2022.1.1,29.62092327551204,
,,,,,4,0,4,0,11,0,11,0,,,,,,,,,,,,,,,,up,4000,-10,2.6544222211549425e-05,1,1,1,5,531.7095129200491,None,530.6485166000202,530.9816348999739,531.6804276000476,532.0153329999885,None,None,up,1,1.7616936000995338,530.7140769000398,None,None,None,,,,,,,cmzntn,001,0,fr,2022-05-02_15h13.11.669,3-AFC_adaptive_staircase_mess,2022.1.1,29.62092327551204,
,,,,,4,0,4,0,12,0,12,0,,,,,,,,,,,,,,,,up,4000,-10,2.6544222211549425e-05,1,1,1,5,535.0067836200353,535.2328785000136,533.9538613000186,534.2796282999916,534.9448404000141,535.2620992000448,None,None,up,1,1.4696602000622079,534.0157456999877,None,None,None,,,,,,,cmzntn,001,0,fr,2022-05-02_15h13.11.669,3-AFC_adaptive_staircase_mess,2022.1.1,29.62092327551204,
,,,,,4,0,4,0,13,0,13,0,,,,,,,,,,,,,,,,left,4000,-20,8.394020090612804e-06,-1,2,-1,-5.0,537.0459348200122,537.2631847000448,536.9878014000133,537.2952597000403,537.9871824999573,538.3177734999917,538.9865663000382,539.3224086000118,left,1,3.4716349999653175,537.0524374999804,None,539.5542324000271,None,,,,,,,cmzntn,001,0,fr,2022-05-02_15h13.11.669,3-AFC_adaptive_staircase_mess,2022.1.1,29.62092327551204,
,,,,,4,0,4,0,14,0,14,0,,,,,,,,,,,,,,,,right,4000,-20,8.394020090612804e-06,-1,2,-1,-5.0,544.0568923199783,544.2699392000213,542.0240639999975,542.3559691000264,542.9942435999401,543.3288872999838,543.9935068000341,544.2976873000152,right,1,3.0893854999449104,542.0585113000125,None,544.564372300054,None,,,,,,,cmzntn,001,0,fr,2022-05-02_15h13.11.669,3-AFC_adaptive_staircase_mess,2022.1.1,29.62092327551204,
,,,,,4,0,4,0,15,0,15,0,,,,,,,,,,,,,,,,left,4000,-25.0,4.720304381429618e-06,-1,2,-1,-5.0,546.6889527199558,546.9050069999648,546.6598673999542,546.9675597000169,547.6274196000304,547.9656913999934,548.6327526000096,548.9638815999497,right,0,2.6144134999485686,546.6940284000011,None,549.1997075000545,None,,,,,,,cmzntn,001,0,fr,2022-05-02_15h13.11.669,3-AFC_adaptive_staircase_mess,2022.1.1,29.62092327551204,
,,,,,4,0,4,0,16,0,16,0,,,,,,,,,,,,,,,,up,4000,-22.5,6.294627058970837e-06,1,3,1,2.5,551.8638281199849,552.0734541999409,550.8331481999485,551.1348036000272,551.8047909999732,552.1394727999577,552.8052874000277,553.138274100027,right,0,2.6947730999672785,550.8696954000043,None,553.371763800038,None,,,,,,,cmzntn,001,0,fr,2022-05-02_15h13.11.669,3-AFC_adaptive_staircase_mess,2022.1.1,29.62092327551204,
,,,,,4,0,4,0,17,0,17,0,,,,,,,,,,,,,,,,left,4000,-20.0,8.394020090612804e-06,1,3,1,2.5,555.0866699199426,None,555.057584599941,555.3617376999464,556.0367269000271,556.3727989000035,557.0408180999802,557.3727561000269,left,1,2.6858024999964982,555.0861315999646,None,557.6099666999653,None,,,,,,,cmzntn,001,0,fr,2022-05-02_15h13.11.669,3-AFC_adaptive_staircase_mess,2022.1.1,29.62092327551204,
,,,,,4,0,4,0,18,0,18,0,,,,,,,,,,,,,,,,up,4000,-20.0,8.394020090612804e-06,1,3,1,2.5,560.3049112200272,560.5187489000382,559.2408179000486,559.5763622999657,560.2419683999615,560.5502832999919,561.2434158000397,561.5793682000367,right,0,2.992137699970044,559.3087406000122,None,561.8125240999507,None,,,,,,,cmzntn,001,0,fr,2022-05-02_15h13.11.669,3-AFC_adaptive_staircase_mess,2022.1.1,29.62092327551204,
,,,,,4,0,4,0,19,0,19,0,,,,,,,,,,,,,,,,left,4000,-17.5,1.11936056928417e-05,1,3,1,2.5,563.8457716199803,564.0611041999655,563.7865805999609,564.0883351999801,564.7787274000002,565.1161035000114,565.786123799975,566.1132703999756,left,1,2.756498400005512,563.847725700005,None,566.346572099952,None,,,,,,,cmzntn,001,0,fr,2022-05-02_15h13.11.669,3-AFC_adaptive_staircase_mess,2022.1.1,29.62092327551204,
,,,,,4,0,4,0,20,0,20,0,,,,,,,,,,,,,,,,left,4000,-17.5,1.11936056928417e-05,1,3,1,2.5,568.1458686199505,568.3592447999399,568.0828801000025,568.3910141000524,569.0877809999511,569.414724900038,570.0840924000368,570.4186867000535,left,1,2.8208991999272257,568.1508423000341,None,570.6560442999471,None,,,,,,,cmzntn,001,0,fr,2022-05-02_15h13.11.669,3-AFC_adaptive_staircase_mess,2022.1.1,29.62092327551204,
,,,,,4,0,4,0,21,0,21,0,,,,,,,,,,,,,,,,up,4000,-22.5,6.294627058970837e-06,-1,4,-1,-5.0,573.5214133200236,None,572.4853946999647,572.8192054999527,573.4609407000244,573.793200999964,574.4615199000109,574.7880176999606,up,1,2.7732079999987036,572.5190061000176,None,575.0291874000104,None,,,,,,,cmzntn,001,0,fr,2022-05-02_15h13.11.669,3-AFC_adaptive_staircase_mess,2022.1.1,29.62092327551204,
,,,,,4,0,4,0,22,0,22,0,,,,,,,,,,,,,,,,up,4000,-22.5,6.294627058970837e-06,-1,4,-1,-5.0,577.8308201199864,None,576.7602480000351,577.0930841000518,577.7647828999907,578.098580299993,578.7633786000079,579.095003399998,right,0,3.168805900029838,576.8274369999999,None,579.3327233999735,None,,,,,,,cmzntn,001,0,fr,2022-05-02_15h13.11.669,3-AFC_adaptive_staircase_mess,2022.1.1,29.62092327551204,
,,,,,4,0,4,0,23,0,23,0,,,,,,,,,,,,,,,,right,4000,-20.0,8.394020090612804e-06,1,5,1,2.5,583.5320910199546,583.7420194000006,581.4617231000448,581.7646589999786,582.4670384000055,582.7984067000216,583.4687116999412,583.7742970000254,right,1,2.770132699981332,581.5302436000202,None,584.0325699000387,None,,,,,,,cmzntn,001,0,fr,2022-05-02_15h13.11.669,3-AFC_adaptive_staircase_mess,2022.1.1,29.62092327551204,
,,,,,4,0,4,0,24,0,24,0,,,,,,,,,,,,,,,,up,4000,-20.0,8.394020090612804e-06,1,5,1,2.5,586.8633360199631,587.0827741000103,585.8049902999774,586.1378891000059,586.8026863000123,587.1108088999754,587.8059522999683,588.1357649000129,right,0,3.2599578999215737,585.8718816000037,None,588.3733551000478,None,,,,,,,cmzntn,001,0,fr,2022-05-02_15h13.11.669,3-AFC_adaptive_staircase_mess,2022.1.1,29.62092327551204,
,,,,,4,0,4,0,25,0,25,0,,,,,,,,,,,,,,,,left,4000,-17.5,1.11936056928417e-05,1,5,1,2.5,590.6717539199628,None,590.6082951000426,590.9419509000145,591.6092860000208,591.944646100048,592.6118645999813,592.9399344000267,up,0,3.4604572999523953,590.6791093000211,None,593.1800058999797,None,,,,,,,cmzntn,001,0,fr,2022-05-02_15h13.11.669,3-AFC_adaptive_staircase_mess,2022.1.1,29.62092327551204,
,,,,,4,0,4,0,26,0,26,0,,,,,,,,,,,,,,,,right,4000,-15.0,1.4926913094589802e-05,1,5,1,2.5,597.6457701200154,None,595.617498400039,595.9496130000334,596.6200804000255,596.9484585999744,597.6166848000139,597.9495525000384,right,1,2.603864899952896,595.6478660999564,None,598.1521214999957,None,,,,,,,cmzntn,001,0,fr,2022-05-02_15h13.11.669,3-AFC_adaptive_staircase_mess,2022.1.1,29.62092327551204,
,,,,,4,0,4,0,27,0,27,0,,,,,,,,,,,,,,,,right,4000,-15.0,1.4926913094589802e-05,1,5,1,2.5,601.815365220001,602.0281904999865,599.7798461000202,600.0862044000532,600.7558709000004,601.0866735000163,601.751299399999,602.060334000038,right,1,2.7087161000818014,599.8153327000327,None,602.3213782999665,None,,,,,,,cmzntn,001,0,fr,2022-05-02_15h13.11.669,3-AFC_adaptive_staircase_mess,2022.1.1,29.62092327551204,
,,,,,4,0,4,0,28,0,28,0,,,,,,,,,,,,,,,,left,4000,-20.0,8.394020090612804e-06,-1,6,-1,-5.0,604.0470800200012,604.2650653000455,604.0179946999997,604.328654199955,604.9916034999769,605.3261261000298,606.0178918000311,606.33075990004,left,1,2.855711399926804,604.0522472000448,None,606.5583462000359,None,,,,,,,cmzntn,001,0,fr,2022-05-02_15h13.11.669,3-AFC_adaptive_staircase_mess,2022.1.1,29.62092327551204,
,,,,,5,0,5,0,0,0,0,0,,,,,,,,,,,,,[],[],10,right,6000,30,0.003664122665694519,0,0,-1,10,611.8946366199991,None,609.8508443000028,610.1707978999475,610.8627785999561,611.1951980999438,611.8655512999976,612.1970968999667,right,1,2.406383099965751,609.8785878999624,None,None,None,space,1.3938763999613002,607.9947496999521,None,607.9947496999521,None,cmzntn,001,0,fr,2022-05-02_15h13.11.669,3-AFC_adaptive_staircase_mess,2022.1.1,29.62092327551204,
,,,,,5,0,5,0,1,0,1,0,,,,,,,,,,,,,,,,right,6000,30,0.003664122665694519,0,0,-1,10,615.8305146199884,616.0430311999517,613.7644899999723,614.0649505000329,614.7657377000432,615.0662424999755,615.7674972000532,616.0746970999753,right,1,2.2113694000290707,613.8333815999795,None,None,None,,,,,,,cmzntn,001,0,fr,2022-05-02_15h13.11.669,3-AFC_adaptive_staircase_mess,2022.1.1,29.62092327551204,
,,,,,5,0,5,0,2,0,2,0,,,,,,,,,,,,,,,,right,6000,10,0.00036641226656945183,-1,0,-1,-10,619.5978788199602,619.81260439998,617.5388551000506,617.8735868999502,618.5424938000506,618.8701879000291,619.5403579999693,None,right,1,2.1988050000509247,617.6051048999652,None,None,None,,,,,,,cmzntn,001,0,fr,2022-05-02_15h13.11.669,3-AFC_adaptive_staircase_mess,2022.1.1,29.62092327551204,
,,,,,5,0,5,0,3,0,3,0,,,,,,,,,,,,,,,,left,6000,10,0.00036641226656945183,-1,0,-1,-10,621.3401451199782,None,621.2701770999702,621.5750856000232,None,None,None,None,up,0,0.4273592000827193,621.3447406999767,None,None,None,,,,,,,cmzntn,001,0,fr,2022-05-02_15h13.11.669,3-AFC_adaptive_staircase_mess,2022.1.1,29.62092327551204,
,,,,,5,0,5,0,4,0,4,0,,,,,,,,,,,,,,,,up,6000,15,0.0006515833892261495,1,1,1,5,None,None,623.271916299942,None,None,None,None,None,left,0,-1.4386873999610543,623.3061265000142,None,None,None,,,,,,,cmzntn,001,0,fr,2022-05-02_15h13.11.669,3-AFC_adaptive_staircase_mess,2022.1.1,29.62092327551204,
,,,,,5,0,5,0,5,0,5,0,,,,,,,,,,,,,,,,up,6000,20,0.0011586973249842392,1,1,1,5,625.8367868200178,626.0511394999921,624.7779498000164,625.1103100000182,625.7772814000491,626.0843802000163,None,None,up,1,1.4381040999433026,624.8459274000488,None,None,None,,,,,,,cmzntn,001,0,fr,2022-05-02_15h13.11.669,3-AFC_adaptive_staircase_mess,2022.1.1,29.62092327551204,
,,,,,5,0,5,0,6,0,6,0,,,,,,,,,,,,,,,,up,6000,20,0.0011586973249842392,1,1,1,5,628.8467453199439,629.062427100027,627.7915251000086,628.1126418999629,628.7812540000305,629.0908708999632,None,None,up,1,1.343330999952741,627.8530094999587,None,None,None,,,,,,,cmzntn,001,0,fr,2022-05-02_15h13.11.669,3-AFC_adaptive_staircase_mess,2022.1.1,29.62092327551204,
,,,,,5,0,5,0,7,0,7,0,,,,,,,,,,,,,,,,left,6000,10,0.00036641226656945183,-1,2,-1,-5.0,630.7414427199867,630.955529000028,630.7123573999852,631.0201363000087,None,None,None,None,left,1,0.6096128999488428,630.7467219999526,None,None,None,,,,,,,cmzntn,001,0,fr,2022-05-02_15h13.11.669,3-AFC_adaptive_staircase_mess,2022.1.1,29.62092327551204,
,,,,,5,0,5,0,8,0,8,0,,,,,,,,,,,,,,,,left,6000,10,0.00036641226656945183,-1,2,-1,-5.0,632.9095572199906,633.1236335999565,632.8461725000525,633.157549399999,None,None,None,None,left,1,0.4898498000111431,632.91413499997,None,None,None,,,,,,,cmzntn,001,0,fr,2022-05-02_15h13.11.669,3-AFC_adaptive_staircase_mess,2022.1.1,29.62092327551204,
,,,,,5,0,5,0,9,0,9,0,,,,,,,,,,,,,,,,up,6000,5.0,0.000206048759548665,-1,2,-1,-5.0,635.9480515199714,636.1660695000319,634.9121469999664,635.2204585999716,635.8886300999438,636.1957613000413,None,None,up,1,1.3864264000440016,634.9455357999541,None,None,None,,,,,,,cmzntn,001,0,fr,2022-05-02_15h13.11.669,3-AFC_adaptive_staircase_mess,2022.1.1,29.62092327551204,
,,,,,5,0,5,0,10,0,10,0,,,,,,,,,,,,,,,,up,6000,5.0,0.000206048759548665,-1,2,-1,-5.0,638.8911631199765,639.1060496999417,637.852639400051,638.1841434000526,638.8316754000261,639.1376691999612,None,None,up,1,1.3268883998971432,637.8865370999556,None,None,None,,,,,,,cmzntn,001,0,fr,2022-05-02_15h13.11.669,3-AFC_adaptive_staircase_mess,2022.1.1,29.62092327551204,
,,,,,5,0,5,0,11,0,11,0,,,,,,,,,,,,,,,,up,6000,0.0,0.00011586973249842387,-1,2,-1,-5.0,641.7522648199695,641.9666785999434,640.7237307999749,641.0573904999765,641.723179499968,642.0313700999832,None,None,up,1,1.4970956000033766,640.7554367999546,None,None,None,,,,,,,cmzntn,001,0,fr,2022-05-02_15h13.11.669,3-AFC_adaptive_staircase_mess,2022.1.1,29.62092327551204,
,,,,,5,0,5,0,12,0,12,0,,,,,,,,,,,,,,,,up,6000,0.0,0.00011586973249842387,-1,2,-1,-5.0,644.7931303199614,645.0038571000332,643.723124000011,644.0648671999807,644.7341011000099,645.0675577999791,None,None,up,1,1.5037868999643251,643.7878291000379,None,None,None,,,,,,,cmzntn,001,0,fr,2022-05-02_15h13.11.669,3-AFC_adaptive_staircase_mess,2022.1.1,29.62092327551204,
,,,,,5,0,5,0,13,0,13,0,,,,,,,,,,,,,,,,right,6000,-5.0,6.515833892261494e-05,-1,2,-1,-5.0,648.864993220009,649.0864634000463,646.7924842999782,647.1232071999693,647.7968246999662,648.1258417000063,648.8014688000549,649.1147970999591,right,1,3.072307800059207,646.8600138999755,None,649.362436800031,None,,,,,,,cmzntn,001,0,fr,2022-05-02_15h13.11.669,3-AFC_adaptive_staircase_mess,2022.1.1,29.62092327551204,
,,,,,5,0,5,0,14,0,14,0,,,,,,,,,,,,,,,,left,6000,-5.0,6.515833892261494e-05,-1,2,-1,-5.0,651.496077720006,None,651.4307498999406,651.7678928000387,652.438555700006,None,None,None,left,1,0.9569919999921694,651.5031132999575,None,None,None,,,,,,,cmzntn,001,0,fr,2022-05-02_15h13.11.669,3-AFC_adaptive_staircase_mess,2022.1.1,29.62092327551204,
,,,,,5,0,5,0,15,0,15,0,,,,,,,,,,,,,,,,left,6000,-10.0,3.664122665694518e-05,-1,2,-1,-5.0,653.9792005200172,None,653.9501152000157,654.2753771999851,654.9227827000432,655.2440639999695,655.9352908999426,656.2493358999491,right,0,2.5597409000620246,653.9815916999942,None,656.4813026000047,None,,,,,,,cmzntn,001,0,fr,2022-05-02_15h13.11.669,3-AFC_adaptive_staircase_mess,2022.1.1,29.62092327551204,
,,,,,5,0,5,0,16,0,16,0,,,,,,,,,,,,,,,,up,6000,-7.5,4.886186104779051e-05,1,3,1,2.5,659.0590331199812,None,658.035393099999,658.364154699957,659.0299477999797,659.3473736000014,660.0253735999577,660.336674500024,up,1,2.67846759990789,658.069603699958,None,660.5830029000062,None,,,,,,,cmzntn,001,0,fr,2022-05-02_15h13.11.669,3-AFC_adaptive_staircase_mess,2022.1.1,29.62092327551204,
,,,,,5,0,5,0,17,0,17,0,,,,,,,,,,,,,,,,right,6000,-7.5,4.886186104779051e-05,1,3,1,2.5,664.2606369200396,None,662.2388028999558,662.5580949999858,663.2401517999824,663.5565660999855,664.2315516000381,664.5521732999478,right,1,2.477907199994661,662.2698856999632,None,664.7856119199889,None,,,,,,,cmzntn,001,0,fr,2022-05-02_15h13.11.669,3-AFC_adaptive_staircase_mess,2022.1.1,29.62092327551204,
,,,,,5,0,5,0,18,0,18,0,,,,,,,,,,,,,,,,up,6000,-12.5,2.7477043692881217e-05,-1,4,-1,-5.0,667.2534682200524,None,666.2184192000423,666.5468736999901,667.2243829000508,667.5506776999682,668.2243195000337,668.543979399954,right,0,2.30792679998558,666.2800628000405,None,None,None,,,,,,,cmzntn,001,0,fr,2022-05-02_15h13.11.669,3-AFC_adaptive_staircase_mess,2022.1.1,29.62092327551204,
,,,,,5,0,5,0,19,0,19,0,,,,,,,,,,,,,,,,left,6000,-10.0,3.664122665694518e-05,1,5,1,2.5,670.1531116200379,None,670.0894897000398,670.417408999987,671.0814854999771,671.3920074000489,672.0808709999546,672.3897845000029,up,0,2.8651426999131218,670.154835699941,None,672.6345073999837,None,,,,,,,cmzntn,001,0,fr,2022-05-02_15h13.11.669,3-AFC_adaptive_staircase_mess,2022.1.1,29.62092327551204,
,,,,,5,0,5,0,20,0,20,0,,,,,,,,,,,,,,,,left,6000,-7.5,4.886186104779051e-05,1,5,1,2.5,674.5491483200342,None,674.5200630000327,674.8403917000396,675.4921954999445,675.8002549000084,676.5061371000484,676.8063365999842,up,0,2.850861599901691,674.5538662000326,None,677.0554839000106,None,,,,,,,cmzntn,001,0,fr,2022-05-02_15h13.11.669,3-AFC_adaptive_staircase_mess,2022.1.1,29.62092327551204,
,,,,,5,0,5,0,21,0,21,0,,,,,,,,,,,,,,,,right,6000,-5.0,6.515833892261494e-05,1,5,1,2.5,680.9500092199771,None,678.8996780000161,679.2021228000522,679.8939529999625,680.1994288000278,680.8889494000468,681.2016976999585,up,0,2.904126799898222,678.9316543999594,None,681.4432589999633,None,,,,,,,cmzntn,001,0,fr,2022-05-02_15h13.11.669,3-AFC_adaptive_staircase_mess,2022.1.1,29.62092327551204,
,,,,,5,0,5,0,22,0,22,0,,,,,,,,,,,,,,,,up,6000,-2.5,8.689004143746872e-05,1,5,1,2.5,684.3649402199546,None,683.323024900048,683.6384705000091,684.3358548999531,684.6642462000018,None,None,up,1,1.679854099988006,683.3877167999744,None,None,None,,,,,,,cmzntn,001,0,fr,2022-05-02_15h13.11.669,3-AFC_adaptive_staircase_mess,2022.1.1,29.62092327551204,
,,,,,5,0,5,0,23,0,23,0,,,,,,,,,,,,,,,,right,6000,-2.5,8.689004143746872e-05,1,5,1,2.5,688.5851666200208,688.8129314000253,686.5576949999668,686.8698287999723,687.5432108000387,687.8568184999749,688.5560813000193,688.8737191000255,right,1,2.460723700001836,686.5920497999759,None,689.0900201199577,None,,,,,,,cmzntn,001,0,fr,2022-05-02_15h13.11.669,3-AFC_adaptive_staircase_mess,2022.1.1,29.62092327551204,
,,,,,5,0,5,0,24,0,24,0,,,,,,,,,,,,,,,,left,6000,-7.5,4.886186104779051e-05,-1,6,-1,-5.0,690.5588763199514,None,690.5297909999499,690.8428960000165,691.5246598999947,691.8315645999974,692.5244244999485,692.8290378999664,left,1,3.1638515000231564,690.5601139999926,None,693.0724577000365,None,,,,,,,cmzntn,001,0,fr,2022-05-02_15h13.11.669,3-AFC_adaptive_staircase_mess,2022.1.1,29.62092327551204,
,,,,,6,0,6,0,0,0,0,0,,,,,,,,,,,,,[],[],10,up,8000,30,0.005740768107484416,0,0,-1,10,697.9459270199761,None,696.9225512000266,697.2424930999987,697.9168416999746,698.238155100029,None,None,up,1,1.3789069999475032,696.9691787000047,None,None,None,space,1.628513199975714,694.8321985000512,None,694.8321985000512,None,cmzntn,001,0,fr,2022-05-02_15h13.11.669,3-AFC_adaptive_staircase_mess,2022.1.1,29.62092327551204,
,,,,,6,0,6,0,1,0,1,0,,,,,,,,,,,,,,,,up,8000,30,0.005740768107484416,0,0,-1,10,700.8783592200373,None,699.8193955000024,700.1388219000073,700.8188378999475,701.1364676000085,None,None,up,1,1.2982818000018597,699.8815811000532,None,None,None,,,,,,,cmzntn,001,0,fr,2022-05-02_15h13.11.669,3-AFC_adaptive_staircase_mess,2022.1.1,29.62092327551204,
,,,,,6,0,6,0,2,0,2,0,,,,,,,,,,,,,,,,left,8000,10,0.0005740768107484417,-1,0,-1,-10,702.7176967199659,702.9458132999716,702.6886113999644,703.0099205999868,None,None,None,None,up,0,0.6672178000444546,702.7202358000213,None,None,None,,,,,,,cmzntn,001,0,fr,2022-05-02_15h13.11.669,3-AFC_adaptive_staircase_mess,2022.1.1,29.62092327551204,
,,,,,6,0,6,0,3,0,3,0,,,,,,,,,,,,,,,,right,8000,15,0.001020868972334765,1,1,1,5,None,None,704.8955561999464,None,None,None,None,None,left,0,-1.380595099995844,704.9284058000194,None,None,None,,,,,,,cmzntn,001,0,fr,2022-05-02_15h13.11.669,3-AFC_adaptive_staircase_mess,2022.1.1,29.62092327551204,
,,,,,6,0,6,0,4,0,4,0,,,,,,,,,,,,,,,,up,8000,20,0.0018153902738505074,1,1,1,5,707.4458949199645,707.6620854999637,706.3829874000512,706.7136582999956,707.416809599963,707.7202648000093,None,None,up,1,1.4020637000212446,706.4491097000428,None,None,None,,,,,,,cmzntn,001,0,fr,2022-05-02_15h13.11.669,3-AFC_adaptive_staircase_mess,2022.1.1,29.62092327551204,
,,,,,6,0,6,0,5,0,5,0,,,,,,,,,,,,,,,,up,8000,20,0.0018153902738505074,1,1,1,5,710.3929728200194,None,709.3461207000073,709.6660536000272,710.3638875000179,710.690080899978,None,None,up,1,1.3222112000221387,709.4096885999897,None,None,None,,,,,,,cmzntn,001,0,fr,2022-05-02_15h13.11.669,3-AFC_adaptive_staircase_mess,2022.1.1,29.62092327551204,
,,,,,6,0,6,0,6,0,6,0,,,,,,,,,,,,,,,,up,8000,10,0.0005740768107484417,-1,2,-1,-5.0,713.279784719972,713.5035230000503,712.2193218000466,712.5515208999859,713.206549399998,713.5366917999927,None,None,up,1,1.2906406000256538,712.2888567999471,None,None,None,,,,,,,cmzntn,001,0,fr,2022-05-02_15h13.11.669,3-AFC_adaptive_staircase_mess,2022.1.1,29.62092327551204,
,,,,,6,0,6,0,7,0,7,0,,,,,,,,,,,,,,,,right,8000,10,0.0005740768107484417,-1,2,-1,-5.0,717.1575569200097,None,715.088828900014,715.4075713000493,716.0928016999969,716.4226828999817,717.0925099999877,717.4120954000391,right,1,2.456414100015536,715.1566659000237,None,717.6315783000318,None,,,,,,,cmzntn,001,0,fr,2022-05-02_15h13.11.669,3-AFC_adaptive_staircase_mess,2022.1.1,29.62092327551204,
,,,,,6,0,6,0,8,0,8,0,,,,,,,,,,,,,,,,up,8000,5.0,0.00032282711451732784,-1,2,-1,-5.0,720.1431817199802,None,719.0953259000089,719.3971144000534,720.0961689000251,720.4061880999943,None,None,up,1,1.3141805999912322,719.1619023999665,None,None,None,,,,,,,cmzntn,001,0,fr,2022-05-02_15h13.11.669,3-AFC_adaptive_staircase_mess,2022.1.1,29.62092327551204,
,,,,,6,0,6,0,9,0,9,0,,,,,,,,,,,,,,,,up,8000,5.0,0.00032282711451732784,-1,2,-1,-5.0,723.0462810199708,None,721.9974145999877,722.3292000000365,722.998658400029,723.3035043999553,None,None,up,1,1.3274934999644756,722.0605489000445,None,None,None,,,,,,,cmzntn,001,0,fr,2022-05-02_15h13.11.669,3-AFC_adaptive_staircase_mess,2022.1.1,29.62092327551204,
,,,,,6,0,6,0,10,0,10,0,,,,,,,,,,,,,,,,up,8000,0.0,0.0001815390273850507,-1,2,-1,-5.0,725.9271657199599,726.1501038999995,724.8670620999765,725.2005700999871,725.8532770000165,726.1803978000535,None,None,up,1,1.350335399969481,724.9336496000178,None,None,None,,,,,,,cmzntn,001,0,fr,2022-05-02_15h13.11.669,3-AFC_adaptive_staircase_mess,2022.1.1,29.62092327551204,
,,,,,6,0,6,0,11,0,11,0,,,,,,,,,,,,,,,,left,8000,0.0,0.0001815390273850507,-1,2,-1,-5.0,727.8310693200212,728.0521455999697,727.7687375999521,728.0834097999614,None,None,None,None,left,1,0.6721630999818444,727.8360515000531,None,None,None,,,,,,,cmzntn,001,0,fr,2022-05-02_15h13.11.669,3-AFC_adaptive_staircase_mess,2022.1.1,29.62092327551204,
,,,,,6,0,6,0,12,0,12,0,,,,,,,,,,,,,,,,left,8000,-5.0,0.00010208689723347648,-1,2,-1,-5.0,730.0696118199733,None,730.0405264999717,730.3712081999984,730.9947114000097,731.3066469000187,732.0157149999868,732.3378385000397,right,0,2.6566425999626517,730.0591016999679,None,732.5771547999466,None,,,,,,,cmzntn,001,0,fr,2022-05-02_15h13.11.669,3-AFC_adaptive_staircase_mess,2022.1.1,29.62092327551204,
,,,,,6,0,6,0,13,0,13,0,,,,,,,,,,,,,,,,right,8000,-2.5,0.00013613506540389563,1,3,1,2.5,736.2741383200512,736.4955123000545,734.2412714000093,734.5786560999695,735.21143330005,735.5433700999711,736.2111287999433,736.5250452000182,left,0,3.0169859000016004,734.2745987999951,None,736.7826517999638,None,,,,,,,cmzntn,001,0,fr,2022-05-02_15h13.11.669,3-AFC_adaptive_staircase_mess,2022.1.1,29.62092327551204,
,,,,,6,0,6,0,14,0,14,0,,,,,,,,,,,,,,,,up,8000,0.0,0.0001815390273850507,1,3,1,2.5,739.845754719968,None,738.7666105000535,739.079496899969,739.7827616999857,740.100670899963,None,None,up,1,1.4876939000096172,738.8448579000542,None,None,None,,,,,,,cmzntn,001,0,fr,2022-05-02_15h13.11.669,3-AFC_adaptive_staircase_mess,2022.1.1,29.62092327551204,
,,,,,6,0,6,0,15,0,15,0,,,,,,,,,,,,,,,,left,8000,0.0,0.0001815390273850507,1,3,1,2.5,741.8843722199556,None,741.8193481999915,742.1528366999701,None,None,None,None,left,1,0.7973316999850795,741.8864217000082,None,None,None,,,,,,,cmzntn,001,0,fr,2022-05-02_15h13.11.669,3-AFC_adaptive_staircase_mess,2022.1.1,29.62092327551204,
,,,,,6,0,6,0,16,0,16,0,,,,,,,,,,,,,,,,up,8000,-5.0,0.00010208689723347648,-1,4,-1,-5.0,745.2196570199915,None,744.1869172999868,744.5226591000101,745.19057169999,745.5202301000245,None,None,up,1,1.5344227999448776,744.2211729999399,None,None,None,,,,,,,cmzntn,001,0,fr,2022-05-02_15h13.11.669,3-AFC_adaptive_staircase_mess,2022.1.1,29.62092327551204,
,,,,,6,0,6,0,17,0,17,0,,,,,,,,,,,,,,,,up,8000,-5.0,0.00010208689723347648,-1,4,-1,-5.0,748.3229466199875,None,747.2889539999887,747.6235789000057,748.259145500022,748.5928882999578,749.2912026999984,749.6247240999946,up,1,3.1046641999855638,747.3231601000298,None,749.8274709000252,None,,,,,,,cmzntn,001,0,fr,2022-05-02_15h13.11.669,3-AFC_adaptive_staircase_mess,2022.1.1,29.62092327551204,
,,,,,6,0,6,0,18,0,18,0,,,,,,,,,,,,,,,,right,8000,-10.0,5.740768107484415e-05,-1,4,-1,-5.0,753.9936038200278,754.2111148999538,751.926648600027,752.2614555000328,752.9281783000333,753.2610897000413,753.9331624000333,754.2387312999927,up,0,3.2331893000518903,751.9949363999767,None,754.5016444999492,None,,,,,,,cmzntn,001,0,fr,2022-05-02_15h13.11.669,3-AFC_adaptive_staircase_mess,2022.1.1,29.62092327551204,
,,,,,6,0,6,0,19,0,19,0,,,,,,,,,,,,,,,,up,8000,-7.5,7.655437308410152e-05,1,5,1,2.5,757.7630737199681,757.9833034999901,756.7352118999697,757.0672682999866,757.7339883999666,758.0439046999672,758.7311463999795,759.0377100999467,left,0,2.4135204000631347,756.7661303000059,None,None,None,,,,,,,cmzntn,001,0,fr,2022-05-02_15h13.11.669,3-AFC_adaptive_staircase_mess,2022.1.1,29.62092327551204,
,,,,,6,0,6,0,20,0,20,0,,,,,,,,,,,,,,,,right,8000,-5.0,0.00010208689723347648,1,5,1,2.5,762.7371497200104,762.9536093999632,760.6744576999918,761.004859299981,761.7061138999416,762.0394504000433,762.7080644000089,763.0162008999614,right,1,2.7778533999808133,760.7384599000216,None,763.2414481999585,None,,,,,,,cmzntn,001,0,fr,2022-05-02_15h13.11.669,3-AFC_adaptive_staircase_mess,2022.1.1,29.62092327551204,
,,,,,6,0,6,0,21,0,21,0,,,,,,,,,,,,,,,,up,8000,-5.0,0.00010208689723347648,1,5,1,2.5,766.0697527199984,766.2898665999528,765.0094459999818,765.3415545000462,766.007048600004,766.3219077000394,None,None,up,1,1.7827781999949366,765.0771928000031,None,None,None,,,,,,,cmzntn,001,0,fr,2022-05-02_15h13.11.669,3-AFC_adaptive_staircase_mess,2022.1.1,29.62092327551204,
,,,,,6,0,6,0,22,0,22,0,,,,,,,,,,,,,,,,up,8000,-10.0,5.740768107484415e-05,-1,6,-1,-5.0,769.4087959200144,769.6245212999638,768.3547788000433,768.6798137000296,769.3451068999711,769.6516710999422,770.3489524000324,770.678969200002,right,0,3.049172200029716,768.418272000039,None,770.9179287999868,None,,,,,,,cmzntn,001,0,fr,2022-05-02_15h13.11.669,3-AFC_adaptive_staircase_mess,2022.1.1,29.62092327551204,
,,,,,7,0,7,0,0,0,0,0,,,,,,,,,,,,,[],[],10,up,750,30,0.0012851978913844323,0,0,-1,10,775.9804396200227,776.2001276999945,774.9503315000329,775.2532366999658,775.9221152999671,776.2312805999536,None,None,up,1,1.4583935999544337,774.9857428000541,None,None,None,space,1.9225537999300286,772.5532892999472,None,772.5532892999472,None,cmzntn,001,0,fr,2022-05-02_15h13.11.669,3-AFC_adaptive_staircase_mess,2022.1.1,29.62092327551204,
,,,,,7,0,7,0,1,0,1,0,,,,,,,,,,,,,,,,left,750,30,0.0012851978913844323,0,0,-1,10,777.9658858200303,None,777.9368005000288,778.2617556999903,None,None,None,None,left,1,0.6359875000780448,777.9673558999784,None,None,None,,,,,,,cmzntn,001,0,fr,2022-05-02_15h13.11.669,3-AFC_adaptive_staircase_mess,2022.1.1,29.62092327551204,
,,,,,7,0,7,0,2,0,2,0,,,,,,,,,,,,,,,,left,750,10,0.00012851978913844324,-1,0,-1,-10,780.1574903199682,780.376772299991,780.0931456000544,780.3939873999916,None,None,None,None,left,1,0.3332506000297144,780.1587454000255,None,None,None,,,,,,,cmzntn,001,0,fr,2022-05-02_15h13.11.669,3-AFC_adaptive_staircase_mess,2022.1.1,29.62092327551204,
,,,,,7,0,7,0,3,0,3,0,,,,,,,,,,,,,,,,right,750,10,0.00012851978913844324,-1,0,-1,-10,784.0265436199727,784.245499099954,781.9615531000309,782.2934259000467,782.9689226000337,783.291519899969,783.9616420000093,784.2747646999778,right,1,2.3227436000015587,782.0249605999561,None,None,None,,,,,,,cmzntn,001,0,fr,2022-05-02_15h13.11.669,3-AFC_adaptive_staircase_mess,2022.1.1,29.62092327551204,
,,,,,7,0,7,0,4,0,4,0,,,,,,,,,,,,,,,,left,750,0,4.064152580820497e-05,-1,0,-1,-10,785.8915132199647,786.111505500041,785.8287012999645,786.1422065000515,None,None,None,None,left,1,0.6266217000083998,785.8982672999846,None,None,None,,,,,,,cmzntn,001,0,fr,2022-05-02_15h13.11.669,3-AFC_adaptive_staircase_mess,2022.1.1,29.62092327551204,
,,,,,7,0,7,0,5,0,5,0,,,,,,,,,,,,,,,,up,750,0,4.064152580820497e-05,-1,0,-1,-10,789.0654647199437,789.2846457000123,787.9980107999872,788.2976381999906,789.0022155999904,789.3131779000396,None,None,left,0,1.4816930999513716,788.0657079999801,None,None,None,,,,,,,cmzntn,001,0,fr,2022-05-02_15h13.11.669,3-AFC_adaptive_staircase_mess,2022.1.1,29.62092327551204,
,,,,,7,0,7,0,6,0,6,0,,,,,,,,,,,,,,,,left,750,5,7.22719885372964e-05,1,1,1,5,791.1034748199629,791.316154900007,791.0426827999763,791.3472596999491,None,None,None,None,left,1,0.8587177000008523,791.1050770999864,None,None,None,,,,,,,cmzntn,001,0,fr,2022-05-02_15h13.11.669,3-AFC_adaptive_staircase_mess,2022.1.1,29.62092327551204,
,,,,,7,0,7,0,7,0,7,0,,,,,,,,,,,,,,,,right,750,5,7.22719885372964e-05,1,1,1,5,795.5137476199773,None,793.4672442999436,793.770600900054,794.4726078000385,794.7719500999665,795.4477899000049,795.7800659999484,right,1,2.308904999983497,793.4947907000314,None,None,None,,,,,,,cmzntn,001,0,fr,2022-05-02_15h13.11.669,3-AFC_adaptive_staircase_mess,2022.1.1,29.62092327551204,
,,,,,7,0,7,0,8,0,8,0,,,,,,,,,,,,,,,,up,750,-5,2.285440948074376e-05,-1,2,-1,-5.0,798.3384655199945,798.557348900009,797.2756182999583,797.6090041999705,798.2762099000392,798.5881764000515,799.276880200021,799.6126640000148,up,1,2.733085299958475,797.3421927000163,None,799.8455702000065,None,,,,,,,cmzntn,001,0,fr,2022-05-02_15h13.11.669,3-AFC_adaptive_staircase_mess,2022.1.1,29.62092327551204,
,,,,,7,0,7,0,9,0,9,0,,,,,,,,,,,,,,,,left,750,-5,2.285440948074376e-05,-1,2,-1,-5.0,801.6090887199855,801.8261972999899,801.5459740000078,801.8569809000473,802.5499293999746,802.848040199955,803.5539802999701,803.8835002999986,right,0,2.638458599918522,801.6130821999395,None,804.1219917000271,None,,,,,,,cmzntn,001,0,fr,2022-05-02_15h13.11.669,3-AFC_adaptive_staircase_mess,2022.1.1,29.62092327551204,
,,,,,7,0,7,0,10,0,10,0,,,,,,,,,,,,,,,,right,750,-2.5,3.0476844862008466e-05,1,3,1,2.5,None,None,805.7200824000174,806.026084400015,806.7219869999681,807.052412900026,807.72199250001,None,left,0,1.910429299925454,805.7812522000168,None,None,None,,,,,,,cmzntn,001,0,fr,2022-05-02_15h13.11.669,3-AFC_adaptive_staircase_mess,2022.1.1,29.62092327551204,
,,,,,7,0,7,0,11,0,11,0,,,,,,,,,,,,,,,,right,750,0.0,4.064152580820497e-05,1,3,1,2.5,811.2549278199906,811.4744011999574,809.2218154999427,809.5566918000113,810.1905233999714,810.5240165999858,811.1915084000211,811.5028387999628,right,1,2.6927801000420004,809.255500099971,None,811.7597527999897,None,,,,,,,cmzntn,001,0,fr,2022-05-02_15h13.11.669,3-AFC_adaptive_staircase_mess,2022.1.1,29.62092327551204,
,,,,,7,0,7,0,12,0,12,0,,,,,,,,,,,,,,,,right,750,0.0,4.064152580820497e-05,1,3,1,2.5,815.4909023199464,815.7069237000542,813.4253223999403,813.7610033999663,814.4274446000345,814.7639647000469,815.4275617999956,815.7372347000055,right,1,2.4379358999431133,813.4935846000444,None,815.9724674199708,None,,,,,,,cmzntn,001,0,fr,2022-05-02_15h13.11.669,3-AFC_adaptive_staircase_mess,2022.1.1,29.62092327551204,
,,,,,7,0,7,0,13,0,13,0,,,,,,,,,,,,,,,,left,750,-5.0,2.285440948074376e-05,-1,4,-1,-5.0,817.4674890200142,None,817.4078019999433,817.733441599994,818.4030133000342,818.7379285000497,819.4011568999849,819.7304534999421,left,1,2.4958230999764055,817.4701176000526,None,819.9697094999719,None,,,,,,,cmzntn,001,0,fr,2022-05-02_15h13.11.669,3-AFC_adaptive_staircase_mess,2022.1.1,29.62092327551204,
,,,,,7,0,7,0,14,0,14,0,,,,,,,,,,,,,,,,right,750,-5.0,2.285440948074376e-05,-1,4,-1,-5.0,823.5009356199764,823.7134646000341,821.4357693999773,821.7688164999709,822.4352296999423,822.7684658999788,823.4377765000099,823.7449457000475,right,1,2.652897199965082,821.502787000034,None,824.0030867999885,None,,,,,,,cmzntn,001,0,fr,2022-05-02_15h13.11.669,3-AFC_adaptive_staircase_mess,2022.1.1,29.62092327551204,
,,,,,7,0,7,0,15,0,15,0,,,,,,,,,,,,,,,,left,750,-10.0,1.2851978913844322e-05,-1,4,-1,-5.0,825.7024029200431,825.9170100999763,825.6399994000094,825.9482750999741,826.6404777000425,826.9731098000193,827.6423342999769,827.9754980000434,left,1,6.834303900017403,825.7063103000401,None,828.2102398000425,None,,,,,,,cmzntn,001,0,fr,2022-05-02_15h13.11.669,3-AFC_adaptive_staircase_mess,2022.1.1,29.62092327551204,
,,,,,7,0,7,0,16,0,16,0,,,,,,,,,,,,,,,,right,750,-10.0,1.2851978913844322e-05,-1,4,-1,-5.0,836.0787851199741,836.2958958999952,834.0181967000244,834.3510638000444,835.0501811000286,835.3812462999485,836.0161288999952,836.327471000026,right,1,2.457143499981612,834.082409500028,None,836.5683826200432,None,,,,,,,cmzntn,001,0,fr,2022-05-02_15h13.11.669,3-AFC_adaptive_staircase_mess,2022.1.1,29.62092327551204,
,,,,,7,0,7,0,17,0,17,0,,,,,,,,,,,,,,,,up,750,-15.0,7.22719885372964e-06,-1,4,-1,-5.0,839.0510441200342,839.2626341000432,837.9850305999862,838.3213536000112,838.9882514999481,839.2948403999908,839.9876391999424,840.3239481999772,up,1,2.999594100052491,838.0519542000256,None,840.5561292000348,None,,,,,,,cmzntn,001,0,fr,2022-05-02_15h13.11.669,3-AFC_adaptive_staircase_mess,2022.1.1,29.62092327551204,
,,,,,7,0,7,0,18,0,18,0,,,,,,,,,,,,,,,,up,750,-15.0,7.22719885372964e-06,-1,4,-1,-5.0,843.591011819942,None,842.5543990000151,842.864563900046,843.5619264999405,843.8795319000492,844.5625490000239,844.8938141999533,up,1,2.815712900017388,842.5884094999637,None,845.084920699941,None,,,,,,,cmzntn,001,0,fr,2022-05-02_15h13.11.669,3-AFC_adaptive_staircase_mess,2022.1.1,29.62092327551204,
,,,,,7,0,7,0,19,0,19,0,,,,,,,,,,,,,,,,right,750,-20.0,4.0641525808204974e-06,-1,4,-1,-5.0,848.9275896200445,None,846.8587321999948,847.1616982000414,847.8635118999518,848.1973660000367,848.8645867999876,849.1988298000069,right,1,2.269105499959551,846.9273830000311,None,None,None,,,,,,,cmzntn,001,0,fr,2022-05-02_15h13.11.669,3-AFC_adaptive_staircase_mess,2022.1.1,29.62092327551204,
,,,,,7,0,7,0,20,0,20,0,,,,,,,,,,,,,,,,right,750,-20.0,4.0641525808204974e-06,-1,4,-1,-5.0,None,None,850.6666729999706,851.0010839999886,851.6675189000089,852.0011841000523,None,None,up,0,1.4214466999983415,850.7347208999563,None,None,None,,,,,,,cmzntn,001,0,fr,2022-05-02_15h13.11.669,3-AFC_adaptive_staircase_mess,2022.1.1,29.62092327551204,
,,,,,7,0,7,0,21,0,21,0,,,,,,,,,,,,,,,,left,750,-17.5,5.419634570106019e-06,1,5,1,2.5,853.686384519958,None,853.6572991999565,853.9793463000096,854.6394983000355,854.971990399994,855.6360211999854,855.9736592000118,left,1,2.8498561000451446,853.6901360000484,None,856.2106740999734,None,,,,,,,cmzntn,001,0,fr,2022-05-02_15h13.11.669,3-AFC_adaptive_staircase_mess,2022.1.1,29.62092327551204,
,,,,,7,0,7,0,22,0,22,0,,,,,,,,,,,,,,,,left,750,-17.5,5.419634570106019e-06,1,5,1,2.5,858.0623152199435,858.2962860000553,858.0003527000081,858.327995599946,859.0033040000126,859.3066014000215,860.010074299993,860.3414864999941,right,0,2.5223994000116363,858.0664601000026,None,860.5783577000257,None,,,,,,,cmzntn,001,0,fr,2022-05-02_15h13.11.669,3-AFC_adaptive_staircase_mess,2022.1.1,29.62092327551204,
,,,,,7,0,7,0,23,0,23,0,,,,,,,,,,,,,,,,up,750,-15.0,7.22719885372964e-06,1,5,1,2.5,863.1429463200504,None,862.0835220000008,862.4120939000277,863.0798004999524,863.4092479000101,864.080330900033,864.4124885000056,left,0,2.9068616000004113,862.1446850999491,None,864.6494955000235,None,,,,,,,cmzntn,001,0,fr,2022-05-02_15h13.11.669,3-AFC_adaptive_staircase_mess,2022.1.1,29.62092327551204,
,,,,,7,0,7,0,24,0,24,0,,,,,,,,,,,,,,,,left,750,-12.5,9.637624565954684e-06,1,5,1,2.5,866.616135019972,None,866.5511483999435,866.8847455000505,867.5548487999476,867.8830078999745,868.5546922000358,868.8826401999686,left,1,3.0094479999970645,866.6192096000304,None,869.1164153999416,None,,,,,,,cmzntn,001,0,fr,2022-05-02_15h13.11.669,3-AFC_adaptive_staircase_mess,2022.1.1,29.62092327551204,
,,,,,7,0,7,0,25,0,25,0,,,,,,,,,,,,,,,,up,750,-12.5,9.637624565954684e-06,1,5,1,2.5,872.1828966199421,872.4018211000366,871.1161606999813,871.4210808000062,872.1188814999769,872.4287521999795,873.1199964999687,873.4573475000216,up,1,3.115842800005339,871.1846276000142,None,873.6949613000033,None,,,,,,,cmzntn,001,0,fr,2022-05-02_15h13.11.669,3-AFC_adaptive_staircase_mess,2022.1.1,29.62092327551204,
,,,,,7,0,7,0,26,0,26,0,,,,,,,,,,,,,,,,left,750,-17.5,5.419634570106019e-06,-1,6,-1,-5.0,875.8553346200381,None,875.7921758999582,876.1249916000525,876.7931226999499,877.1259536000434,877.7954345999751,878.1286992999958,up,0,2.6479280999628827,875.8599745000247,None,878.3656389999669,None,,,,,,,cmzntn,001,0,fr,2022-05-02_15h13.11.669,3-AFC_adaptive_staircase_mess,2022.1.1,29.62092327551204,
,,,,,8,0,8,0,0,0,0,0,,,,,,,,,,,,,[],[],10,right,500,30,0.002259279721874612,0,0,-1,10,883.6921580200317,883.9083227999508,881.662292700028,881.9678978000302,882.6677074000472,882.9966951999813,883.6630727000302,883.9718052999815,right,1,2.347881499910727,881.6955648999428,None,None,None,space,1.5846011999528855,879.595014499966,None,879.595014499966,None,cmzntn,001,0,fr,2022-05-02_15h13.11.669,3-AFC_adaptive_staircase_mess,2022.1.1,29.62092327551204,
,,,,,8,0,8,0,1,0,1,0,,,,,,,,,,,,,,,,left,500,30,0.002259279721874612,0,0,-1,10,885.5949651200092,885.8092867999803,885.5658798000077,885.8719271000009,None,None,None,None,left,1,0.4768907999387011,885.6002522000344,None,None,None,,,,,,,cmzntn,001,0,fr,2022-05-02_15h13.11.669,3-AFC_adaptive_staircase_mess,2022.1.1,29.62092327551204,
,,,,,8,0,8,0,2,0,2,0,,,,,,,,,,,,,,,,left,500,10,0.0002259279721874612,-1,0,-1,-10,887.6340767200338,887.8450094000436,887.5715523000108,887.8770436999621,None,None,None,None,left,1,0.29226869996637106,887.6393921000417,None,None,None,,,,,,,cmzntn,001,0,fr,2022-05-02_15h13.11.669,3-AFC_adaptive_staircase_mess,2022.1.1,29.62092327551204,
,,,,,8,0,8,0,3,0,3,0,,,,,,,,,,,,,,,,left,500,10,0.0002259279721874612,-1,0,-1,-10,889.4673963200069,889.6752163999481,889.4043184999609,889.7088906000135,None,None,None,None,left,1,0.314358799951151,889.4734371999511,None,None,None,,,,,,,cmzntn,001,0,fr,2022-05-02_15h13.11.669,3-AFC_adaptive_staircase_mess,2022.1.1,29.62092327551204,
,,,,,8,0,8,0,4,0,4,0,,,,,,,,,,,,,,,,up,500,0,7.144469792555515e-05,-1,0,-1,-10,None,None,891.2746677000541,891.606598500046,None,None,None,None,left,0,0.5263823999557644,891.3411449999548,None,None,None,,,,,,,cmzntn,001,0,fr,2022-05-02_15h13.11.669,3-AFC_adaptive_staircase_mess,2022.1.1,29.62092327551204,
,,,,,8,0,8,0,5,0,5,0,,,,,,,,,,,,,,,,left,500,5,0.00012704863527746526,1,1,1,5,893.4087775199907,893.6255277999444,893.344220799976,893.6536913999589,None,None,None,None,left,1,0.5343666999833658,893.4135768000269,None,None,None,,,,,,,cmzntn,001,0,fr,2022-05-02_15h13.11.669,3-AFC_adaptive_staircase_mess,2022.1.1,29.62092327551204,
,,,,,8,0,8,0,6,0,6,0,,,,,,,,,,,,,,,,left,500,5,0.00012704863527746526,1,1,1,5,895.475685020024,None,895.4127898999723,895.755083899945,None,None,None,None,left,1,0.33953110000584275,895.4804306000005,None,None,None,,,,,,,cmzntn,001,0,fr,2022-05-02_15h13.11.669,3-AFC_adaptive_staircase_mess,2022.1.1,29.62092327551204,
,,,,,8,0,8,0,7,0,7,0,,,,,,,,,,,,,,,,right,500,-5,4.017630610928089e-05,-1,2,-1,-5.0,899.345430119941,899.5595581999514,897.3159177999478,897.6503347000107,898.3150170999579,898.6497334999731,899.3163447999395,899.6229867000366,right,1,2.4517220000270754,897.352058700053,None,899.8458776199725,None,,,,,,,cmzntn,001,0,fr,2022-05-02_15h13.11.669,3-AFC_adaptive_staircase_mess,2022.1.1,29.62092327551204,
,,,,,8,0,8,0,8,0,8,0,,,,,,,,,,,,,,,,left,500,-5,4.017630610928089e-05,-1,2,-1,-5.0,901.3479569199728,901.566267700051,901.2851154999807,901.5961201000027,None,None,None,None,left,1,0.6106724999845028,901.3532526999479,None,None,None,,,,,,,cmzntn,001,0,fr,2022-05-02_15h13.11.669,3-AFC_adaptive_staircase_mess,2022.1.1,29.62092327551204,
,,,,,8,0,8,0,9,0,9,0,,,,,,,,,,,,,,,,left,500,-10.0,2.259279721874613e-05,-1,2,-1,-5.0,903.5133730200353,903.7292431000387,903.4508572999621,903.7611763000023,None,None,None,None,left,1,0.5582976000150666,903.5177332999883,None,None,None,,,,,,,cmzntn,001,0,fr,2022-05-02_15h13.11.669,3-AFC_adaptive_staircase_mess,2022.1.1,29.62092327551204,
,,,,,8,0,8,0,10,0,10,0,,,,,,,,,,,,,,,,right,500,-10.0,2.259279721874613e-05,-1,2,-1,-5.0,907.620327519998,907.833463500021,905.5581131000072,905.862979699974,906.5682494000066,906.8963255999843,907.5560151999816,907.8657333999872,up,0,3.2616099999286234,905.6297887000255,None,908.1268261000514,None,,,,,,,cmzntn,001,0,fr,2022-05-02_15h13.11.669,3-AFC_adaptive_staircase_mess,2022.1.1,29.62092327551204,
,,,,,8,0,8,0,11,0,11,0,,,,,,,,,,,,,,,,up,500,-7.5,3.0127979303717903e-05,1,3,1,2.5,911.420349219977,911.637402900029,910.3604070999427,910.6689964999678,911.3912638999755,911.6997393999482,912.3626785000088,912.6986328000203,right,0,2.319672600016929,910.4278099000221,None,None,None,,,,,,,cmzntn,001,0,fr,2022-05-02_15h13.11.669,3-AFC_adaptive_staircase_mess,2022.1.1,29.62092327551204,
,,,,,8,0,8,0,12,0,12,0,,,,,,,,,,,,,,,,up,500,-5.0,4.017630610928089e-05,1,3,1,2.5,915.2970264199423,915.505352600012,914.2638926999643,914.5652205999941,915.2335887999507,915.5391760000493,916.2324812000152,916.5374600000214,up,1,3.632204599911347,914.2995297999587,None,916.8019598999526,None,,,,,,,cmzntn,001,0,fr,2022-05-02_15h13.11.669,3-AFC_adaptive_staircase_mess,2022.1.1,29.62092327551204,
,,,,,8,0,8,0,13,0,13,0,,,,,,,,,,,,,,,,up,500,-5.0,4.017630610928089e-05,1,3,1,2.5,920.4652551200008,920.6876869000262,919.4098406999838,919.7375314000528,920.4052476000506,920.7146512999898,921.4077780999942,921.7405542000197,up,1,2.823463700013235,919.4764179999474,None,921.9768151999451,None,,,,,,,cmzntn,001,0,fr,2022-05-02_15h13.11.669,3-AFC_adaptive_staircase_mess,2022.1.1,29.62092327551204,
,,,,,8,0,8,0,14,0,14,0,,,,,,,,,,,,,,,,right,500,-10.0,2.259279721874613e-05,-1,4,-1,-5.0,925.8027486199746,926.0278680999763,923.7814366000239,924.1136652999558,924.7756569000194,925.1004061000422,925.7736632999731,926.0851704999804,up,0,3.544732099981047,923.8123182000127,None,926.3106224000221,None,,,,,,,cmzntn,001,0,fr,2022-05-02_15h13.11.669,3-AFC_adaptive_staircase_mess,2022.1.1,29.62092327551204,
,,,,,8,0,8,0,15,0,15,0,,,,,,,,,,,,,,,,up,500,-7.5,3.0127979303717903e-05,1,5,1,2.5,929.8800093200291,930.088349299971,928.8441155999899,929.181026199949,929.8509240000276,930.1512900999514,930.8424167999765,931.1444306999911,up,1,2.3196324000600725,928.9085848999675,None,None,None,,,,,,,cmzntn,001,0,fr,2022-05-02_15h13.11.669,3-AFC_adaptive_staircase_mess,2022.1.1,29.62092327551204,
,,,,,8,0,8,0,16,0,16,0,,,,,,,,,,,,,,,,right,500,-7.5,3.0127979303717903e-05,1,5,1,2.5,934.7730642200215,934.9944759999635,932.7136817999417,933.0204159000423,933.7192384999944,934.0232783999527,934.74397890002,935.0572779000504,left,0,3.4373932000016794,932.7829020000063,None,935.2881997999502,None,,,,,,,cmzntn,001,0,fr,2022-05-02_15h13.11.669,3-AFC_adaptive_staircase_mess,2022.1.1,29.62092327551204,
,,,,,8,0,8,0,17,0,17,0,,,,,,,,,,,,,,,,left,500,-5.0,4.017630610928089e-05,1,5,1,2.5,937.7514065199532,937.9692921000533,937.7223211999517,938.0275701000355,938.7117567999521,939.0246823000489,939.7211619999725,940.0573859999422,left,1,2.367300200043246,937.7567430000054,None,None,None,,,,,,,cmzntn,001,0,fr,2022-05-02_15h13.11.669,3-AFC_adaptive_staircase_mess,2022.1.1,29.62092327551204,
,,,,,8,0,8,0,18,0,18,0,,,,,,,,,,,,,,,,left,500,-5.0,4.017630610928089e-05,1,5,1,2.5,941.6385707200272,None,941.6094854000257,941.9262682000408,942.5878489000024,942.9088948999997,None,None,left,1,1.4432160999858752,941.640824800008,None,None,None,,,,,,,cmzntn,001,0,fr,2022-05-02_15h13.11.669,3-AFC_adaptive_staircase_mess,2022.1.1,29.62092327551204,
,,,,,8,0,8,0,19,0,19,0,,,,,,,,,,,,,,,,left,500,-10.0,2.259279721874613e-05,-1,6,-1,-5.0,944.5859773200239,944.8041805999819,944.5568920000223,944.8687096999492,945.5603427999886,945.8909233999439,None,None,left,1,1.3554972999263555,944.5927332999418,None,None,None,,,,,,,cmzntn,001,0,fr,2022-05-02_15h13.11.669,3-AFC_adaptive_staircase_mess,2022.1.1,29.62092327551204,
,,,,,9,0,9,0,0,0,0,0,,,,,,,,,,,,,[],[],10,up,250,30,0.005296268625886445,0,0,-1,10,949.9234487199458,950.1425647999858,948.8825872000307,949.1896746000275,949.8943633999443,950.201712799957,None,None,up,1,1.562603099970147,948.9121825000038,None,None,None,space,1.3954651000676677,947.0166917999741,None,947.0166917999741,None,cmzntn,001,0,fr,2022-05-02_15h13.11.669,3-AFC_adaptive_staircase_mess,2022.1.1,29.62092327551204,
,,,,,9,0,9,0,1,0,1,0,,,,,,,,,,,,,,,,up,250,30,0.005296268625886445,0,0,-1,10,952.9953839199618,None,951.9282618999714,952.2341269999743,952.9307971999515,953.2526448999997,None,None,up,1,1.3159569000126794,951.9918704000302,None,None,None,,,,,,,cmzntn,001,0,fr,2022-05-02_15h13.11.669,3-AFC_adaptive_staircase_mess,2022.1.1,29.62092327551204,
,,,,,9,0,9,0,2,0,2,0,,,,,,,,,,,,,,,,right,250,10,0.0005296268625886444,-1,0,-1,-10,956.8257619200042,None,954.7930800999748,955.1105763999512,955.7655822000233,956.0781498999568,956.7660505999811,957.077756099985,right,1,2.3097787000006065,954.8232914999826,None,None,None,,,,,,,cmzntn,001,0,fr,2022-05-02_15h13.11.669,3-AFC_adaptive_staircase_mess,2022.1.1,29.62092327551204,
,,,,,9,0,9,0,3,0,3,0,,,,,,,,,,,,,,,,up,250,10,0.0005296268625886444,-1,0,-1,-10,959.6508865199751,None,958.5946533000097,958.91345490003,959.589826200041,959.9194375999505,960.603434800054,None,up,1,1.9441642999881878,958.6591245000018,None,None,None,,,,,,,cmzntn,001,0,fr,2022-05-02_15h13.11.669,3-AFC_adaptive_staircase_mess,2022.1.1,29.62092327551204,
,,,,,9,0,9,0,4,0,4,0,,,,,,,,,,,,,,,,up,250,0,0.0001674827195789138,-1,0,-1,-10,963.1287702200236,None,962.0723950000247,962.3799306999426,963.0698368999874,963.3894507000223,None,None,up,1,1.604431900079362,962.1364040999906,None,None,None,,,,,,,cmzntn,001,0,fr,2022-05-02_15h13.11.669,3-AFC_adaptive_staircase_mess,2022.1.1,29.62092327551204,
,,,,,9,0,9,0,5,0,5,0,,,,,,,,,,,,,,,,up,250,0,0.0001674827195789138,-1,0,-1,-10,966.271682919981,966.4904678999446,965.2250059000216,965.5379027000163,966.2102504000068,966.5198359000497,None,None,up,1,1.6041480000130832,965.2552643000381,None,None,None,,,,,,,cmzntn,001,0,fr,2022-05-02_15h13.11.669,3-AFC_adaptive_staircase_mess,2022.1.1,29.62092327551204,
,,,,,9,0,9,0,6,0,6,0,,,,,,,,,,,,,,,,left,250,-10,5.296268625886443e-05,-1,0,-1,-10,968.414040520019,None,968.3849552000174,968.6970191999571,969.3732312000357,969.6932383000385,970.3791663999436,970.7170080000069,up,0,4.538768899976276,968.416729999939,None,970.9376906000543,None,,,,,,,cmzntn,001,0,fr,2022-05-02_15h13.11.669,3-AFC_adaptive_staircase_mess,2022.1.1,29.62092327551204,
,,,,,9,0,9,0,7,0,7,0,,,,,,,,,,,,,,,,right,250,-5,9.418245447449e-05,1,1,1,5,976.4790562199662,None,974.4129511000356,974.7124667000026,975.4200417000102,975.7257954999804,976.4153529000469,976.7309165999759,right,1,2.521808100049384,974.4655865000095,None,976.9758838999551,None,,,,,,,cmzntn,001,0,fr,2022-05-02_15h13.11.669,3-AFC_adaptive_staircase_mess,2022.1.1,29.62092327551204,
,,,,,9,0,9,0,8,0,8,0,,,,,,,,,,,,,,,,right,250,-5,9.418245447449e-05,1,1,1,5,980.5261337199947,None,978.48253379995,978.7915775999427,979.4563612999627,979.764566399972,980.4659664999926,980.7755583999678,up,0,4.521146700019017,978.5139122999972,None,981.0192329999991,None,,,,,,,cmzntn,001,0,fr,2022-05-02_15h13.11.669,3-AFC_adaptive_staircase_mess,2022.1.1,29.62092327551204,
,,,,,9,0,9,0,9,0,9,0,,,,,,,,,,,,,,,,left,250,0,0.0001674827195789138,1,1,1,5,984.5834655199899,None,984.5256407000124,984.8389263999416,None,None,None,None,left,1,0.876088900025934,984.5756155999843,None,None,None,,,,,,,cmzntn,001,0,fr,2022-05-02_15h13.11.669,3-AFC_adaptive_staircase_mess,2022.1.1,29.62092327551204,
,,,,,9,0,9,0,10,0,10,0,,,,,,,,,,,,,,,,up,250,0,0.0001674827195789138,1,1,1,5,987.9665401200066,None,986.914358100039,987.24301440001,987.9374548000051,988.2507505000103,None,None,up,1,1.4347109999507666,986.9767412999645,None,None,None,,,,,,,cmzntn,001,0,fr,2022-05-02_15h13.11.669,3-AFC_adaptive_staircase_mess,2022.1.1,29.62092327551204,
,,,,,9,0,9,0,11,0,11,0,,,,,,,,,,,,,,,,right,250,-10,5.296268625886443e-05,-1,2,-1,-5.0,991.9570469200146,None,989.9058897000505,990.2144950999646,990.9104774999432,991.2250255000545,991.8946681000525,992.212870700052,right,1,2.348285900079645,989.9358620999847,None,None,None,,,,,,,cmzntn,001,0,fr,2022-05-02_15h13.11.669,3-AFC_adaptive_staircase_mess,2022.1.1,29.62092327551204,
,,,,,9,0,9,0,12,0,12,0,,,,,,,,,,,,,,,,right,250,-10,5.296268625886443e-05,-1,2,-1,-5.0,995.8059888199671,None,993.7673236000119,994.0817885999568,994.7611209000461,995.0725475000218,995.7769034999656,996.1082859999733,up,0,10.176261899992824,993.819074900006,None,996.3103126999922,None,,,,,,,cmzntn,001,0,fr,2022-05-02_15h13.11.669,3-AFC_adaptive_staircase_mess,2022.1.1,29.62092327551204,
,,,,,9,0,9,0,13,0,13,0,,,,,,,,,,,,,,,,right,250,-7.5,7.06268772311377e-05,1,3,1,2.5,1007.5447684199783,None,1005.4960135000292,1005.7976779999444,1006.4803134000394,1006.7821768999565,1007.4847213999601,1007.799432400032,right,1,2.62580739997793,1005.52933020005,None,1008.0480566000333,None,,,,,,,cmzntn,001,0,fr,2022-05-02_15h13.11.669,3-AFC_adaptive_staircase_mess,2022.1.1,29.62092327551204,
,,,,,9,0,9,0,14,0,14,0,,,,,,,,,,,,,,,,right,250,-7.5,7.06268772311377e-05,1,3,1,2.5,1011.7179152199999,None,1009.6818052999442,1010.0173081000103,1010.667091100011,1010.9832882999908,1011.6536659999983,1011.9823372999672,right,1,2.631084499997087,1009.7165021999972,None,1012.221199200023,None,,,,,,,cmzntn,001,0,fr,2022-05-02_15h13.11.669,3-AFC_adaptive_staircase_mess,2022.1.1,29.62092327551204,
,,,,,9,0,9,0,15,0,15,0,,,,,,,,,,,,,,,,up,250,-12.5,3.971641173621407e-05,-1,4,-1,-5.0,1014.8565658199834,None,1013.8213626999641,1014.1545582000399,1014.8274804999819,1015.1562842000276,1015.8273070999421,1016.1575879999436,left,0,3.3101122999796644,1013.8852850999683,None,1016.373310899944,None,,,,,,,cmzntn,001,0,fr,2022-05-02_15h13.11.669,3-AFC_adaptive_staircase_mess,2022.1.1,29.62092327551204,
,,,,,9,0,9,0,16,0,16,0,,,,,,,,,,,,,,,,left,250,-10.0,5.296268625886443e-05,1,5,1,2.5,1018.7058524199995,None,1018.6552554999944,1018.9707013999578,1019.6627197000198,1019.9646078000078,1020.6969036000082,1021.0310792999808,right,0,2.365107999998145,1018.7186162000289,None,None,None,,,,,,,cmzntn,001,0,fr,2022-05-02_15h13.11.669,3-AFC_adaptive_staircase_mess,2022.1.1,29.62092327551204,
,,,,,9,0,9,0,17,0,17,0,,,,,,,,,,,,,,,,right,250,-7.5,7.06268772311377e-05,1,5,1,2.5,1024.6129712199793,None,1022.5755919000367,1022.8926919000223,1023.5630288999528,1023.8641462000087,1024.5664550999645,1024.8773803999647,up,0,2.2875573999481276,1022.636230199947,None,None,None,,,,,,,cmzntn,001,0,fr,2022-05-02_15h13.11.669,3-AFC_adaptive_staircase_mess,2022.1.1,29.62092327551204,
,,,,,9,0,9,0,18,0,18,0,,,,,,,,,,,,,,,,left,250,-5.0,9.418245447449e-05,1,5,1,2.5,1026.4623460199684,1026.683534199954,1026.4000242999755,1026.7137441999512,1027.3870219000382,1027.7049017000245,None,None,up,0,1.4476328999735415,1026.4672815999947,None,None,None,,,,,,,cmzntn,001,0,fr,2022-05-02_15h13.11.669,3-AFC_adaptive_staircase_mess,2022.1.1,29.62092327551204,
,,,,,9,0,9,0,19,0,19,0,,,,,,,,,,,,,,,,up,250,-2.5,0.00012559432157547898,1,5,1,2.5,1030.468402619986,1030.6874983999878,1029.4379252999788,1029.7699263000395,1030.4052550999913,1030.7185158999637,None,None,up,1,1.7402071999385953,1029.471140400041,None,None,None,,,,,,,cmzntn,001,0,fr,2022-05-02_15h13.11.669,3-AFC_adaptive_staircase_mess,2022.1.1,29.62092327551204,
,,,,,9,0,9,0,20,0,20,0,,,,,,,,,,,,,,,,right,250,-2.5,0.00012559432157547898,1,5,1,2.5,1034.761378619983,None,1032.70774610003,1033.0107939000009,1033.6950464999536,1034.0438480000012,1034.7322932999814,1035.0507391999708,right,1,2.7835551999742165,1032.7802011000458,None,1035.2770459000021,None,,,,,,,cmzntn,001,0,fr,2022-05-02_15h13.11.669,3-AFC_adaptive_staircase_mess,2022.1.1,29.62092327551204,
,,,,,9,0,9,0,21,0,21,0,,,,,,,,,,,,,,,,right,250,-7.5,7.06268772311377e-05,-1,6,-1,-5.0,1039.109939819947,1039.329991800012,1037.0792643999448,1037.4116295999847,1038.0799970000517,1038.4131642000284,1039.0471726000542,1039.3601683999877,right,1,2.6107267000479624,1037.11308010004,None,1039.6183329999913,None,,,,,,,cmzntn,001,0,fr,2022-05-02_15h13.11.669,3-AFC_adaptive_staircase_mess,2022.1.1,29.62092327551204,
,,,,,10,0,10,0,0,0,0,0,,,,,,,,,,,,,[],[],10,left,125,30,0.02285440948074376,0,0,-1,10,1042.742192819994,None,1042.7131074999925,1043.0270530999405,None,None,None,None,left,1,0.6579690999351442,1042.7452534999466,None,None,None,space,1.4315256999107078,1040.8193412000546,None,1040.8193412000546,None,cmzntn,001,0,fr,2022-05-02_15h13.11.669,3-AFC_adaptive_staircase_mess,2022.1.1,29.62092327551204,
,,,,,10,0,10,0,1,0,1,0,,,,,,,,,,,,,,,,left,125,30,0.02285440948074376,0,0,-1,10,1044.952761819982,None,1044.8886936999625,1045.2238939000526,None,None,None,None,left,1,0.3368707000045106,1044.9549742999952,None,None,None,,,,,,,cmzntn,001,0,fr,2022-05-02_15h13.11.669,3-AFC_adaptive_staircase_mess,2022.1.1,29.62092327551204,
,,,,,10,0,10,0,2,0,2,0,,,,,,,,,,,,,,,,right,125,10,0.002285440948074376,-1,0,-1,-10,1048.8562450199854,1049.0700215999968,1046.7964812000282,1047.121480199974,1047.7904103000183,1048.1257180999964,1048.7932984000072,1049.096151900012,right,1,2.321130499942228,1046.8590719000204,None,None,None,,,,,,,cmzntn,001,0,fr,2022-05-02_15h13.11.669,3-AFC_adaptive_staircase_mess,2022.1.1,29.62092327551204,
,,,,,10,0,10,0,3,0,3,0,,,,,,,,,,,,,,,,left,125,10,0.002285440948074376,-1,0,-1,-10,1050.7548433200457,1050.9759910999564,1050.6923705999507,1051.0075541000115,None,None,None,None,left,1,0.56295259995386,1050.760539800045,None,None,None,,,,,,,cmzntn,001,0,fr,2022-05-02_15h13.11.669,3-AFC_adaptive_staircase_mess,2022.1.1,29.62092327551204,
,,,,,10,0,10,0,4,0,4,0,,,,,,,,,,,,,,,,right,125,0,0.000722719885372964,-1,0,-1,-10,1054.861248820019,1055.0742732000072,1052.794247200014,1053.126089300029,1053.7971404000418,1054.1319228999782,1054.7984412000515,1055.103965300019,right,1,2.366350800031796,1052.8622106000548,None,None,None,,,,,,,cmzntn,001,0,fr,2022-05-02_15h13.11.669,3-AFC_adaptive_staircase_mess,2022.1.1,29.62092327551204,
,,,,,10,0,10,0,5,0,5,0,,,,,,,,,,,,,,,,up,125,0,0.000722719885372964,-1,0,-1,-10,1057.7641426199582,None,1056.6977227999596,1057.0353794000112,1057.7012882999843,1058.0336860000389,None,None,up,1,1.77353630005382,1056.7662145999493,None,None,None,,,,,,,cmzntn,001,0,fr,2022-05-02_15h13.11.669,3-AFC_adaptive_staircase_mess,2022.1.1,29.62092327551204,
,,,,,10,0,10,0,6,0,6,0,,,,,,,,,,,,,,,,left,125,-10,0.0002285440948074376,-1,0,-1,-10,1060.1018864199752,1060.3187590000452,1060.0408455999568,1060.3497078999644,1061.0402845999924,1061.3711123999674,1062.045285900007,1062.379812499974,right,0,2.479252799996175,1060.108433000045,None,1062.6105641999748,None,,,,,,,cmzntn,001,0,fr,2022-05-02_15h13.11.669,3-AFC_adaptive_staircase_mess,2022.1.1,29.62092327551204,
,,,,,10,0,10,0,7,0,7,0,,,,,,,,,,,,,,,,left,125,-5,0.00040641525808204974,1,1,1,5,1064.134363820008,1064.3534417999908,1064.072852400015,1064.3836109000258,1065.075933599961,1065.4086860000389,1066.0788714999799,1066.3857494000113,right,0,2.368739699944854,1064.1385231999448,None,None,None,,,,,,,cmzntn,001,0,fr,2022-05-02_15h13.11.669,3-AFC_adaptive_staircase_mess,2022.1.1,29.62092327551204,
