sweeps.thisRepN,sweeps.thisTrialN,sweeps.thisN,sweeps.thisIndex,trials.thisRepN,trials.thisTrialN,trials.thisN,trials.thisIndex,instructions.started,instructions.stopped,blank_text.started,blank_text.stopped,,text.started,text.stopped,Delay,Prediction,Frequency,Volume,Psychopy_level,isCatchTrial,len(y),finished_audiograms,probe.started,probe.stopped,feedback.keys,feedback.started,feedback.stopped,ISI.started,ISI.stopped,text_2.started,text_2.stopped,feedback.rt,break_txt.started,break_txt.stopped,Audiogram_frequency,Intervals,Audiogram_none,Audiogram_time,Audiogram_both,participant,session,language (english or french),Resume previous experiment,date,expName,psychopyVersion,frameRate,
0,0,0,0,0,0,0,0,24.27515709999716,None,38.10753189999377,None,0.5833333333333334,40.10042390000308,None,2.7886928505657265,frequency,4002.0,-2.0974816001030603,6.60400395185906e-05,0,26,[],0.012080266664270312,None,None,41.15305939997779,None,0.24124256666982546,3.029935417235552,41.38018799998099,None,,,,,,,,,qmbami,001,fr,0,2022-04-27_14h49.13.737,Continuous,2022.1.1,None,
0,0,0,0,1,0,1,0,,,,,,,,2.7553386077391933,frequency,2671.0,-0.8732588636080615,6.806956731817058e-05,0,27,[],0.012251566688064486,None,['space'],44.18945109998458,44.18945109998458,0.21462576667545363,2.969964374414647,44.403580499987584,44.18945109998458,[-2.385740799974883],,,,,,,,qmbami,001,fr,0,2022-04-27_14h49.13.737,Continuous,2022.1.1,None,
0,0,0,0,2,0,2,0,,,,,,,,2.010013148977236,frequency,1783.0,0.6605296640013565,7.015044402361254e-05,0,28,[],0.012204166647279635,None,['space'],47.18659399999888,47.18659399999888,0.21429806665400974,2.224311215631246,47.398013900005026,47.18659399999888,[-2.5182333000120707],,,,,,,,qmbami,001,fr,0,2022-04-27_14h49.13.737,Continuous,2022.1.1,None,
0,0,0,0,3,0,3,0,,,,,,,,1.1754623705182254,frequency,1190.0,-1.636570096515539,4.306966309410557e-05,0,29,[],0.011538466642377898,None,['space'],49.4357272000052,49.4357272000052,0.20676446665311232,1.3822268371713378,49.64893559998018,49.4357272000052,[-1.7273751000175253],,,,,,,,qmbami,001,fr,0,2022-04-27_14h49.13.737,Continuous,2022.1.1,None,
0,0,0,0,4,0,4,0,,,,,,,,2.6417279080104965,frequency,,,,1,29,[],0.012324166658800095,None,['space'],50.84632270000293,50.84632270000293,0.21506786666577682,2.8567957746762733,51.0530230999866,50.84632270000293,[-0.8826281999936327],,,,,,,,qmbami,001,fr,0,2022-04-27_14h49.13.737,Continuous,2022.1.1,None,
0,0,0,0,5,0,5,0,,,,,,,,1.6739749638944674,frequency,530.0,-0.9103155859277792,6.0121670151224284e-05,0,30,[],0.013370066648349166,None,['space'],53.72170249998453,53.72170249998453,0.2116665666399058,1.8856415305343732,53.93101939998451,53.72170249998453,[-1.261149400001159],,,,,,,,qmbami,001,fr,0,2022-04-27_14h49.13.737,Continuous,2022.1.1,None,
0,0,0,0,6,0,6,0,,,,,,,,1.0413796373288544,frequency,354.0,-2.0,7.02951783824607e-05,0,31,[],0.012137366662500426,None,['space'],55.63337880000472,55.63337880000472,0.21086586668388918,1.2522455040127436,55.84255529998336,55.63337880000472,[-0.5334195999894291],,,,,,,,qmbami,001,fr,0,2022-04-27_14h49.13.737,Continuous,2022.1.1,None,
0,0,0,0,7,0,7,0,,,,,,,,1.0401471225176409,frequency,236.0,-1.858325797455511,0.0001573696239868235,0,32,[],0.004482766700675711,0.19425946669070981,None,56.914364600001136,56.914364600001136,0.19425946669070981,1.2344065892083507,57.124989200005075,56.914364600001136,,,,,,,,,qmbami,001,fr,0,2022-04-27_14h49.13.737,Continuous,2022.1.1,None,
0,0,0,0,8,0,8,0,,,,,,,,1.9600450731630508,frequency,158.0,-2.2232178300996726,0.0003320645007175701,0,33,[],0.011966566642513499,None,['space'],58.19332259998191,58.19332259998191,0.21003566664876416,2.170080739811815,58.402847499994095,58.19332259998191,[-0.7256391000119038],,,,,,,,qmbami,001,fr,0,2022-04-27_14h49.13.737,Continuous,2022.1.1,None,
1,0,1,0,0,0,0,0,,,,,0.16666666666666666,63.13333929999499,None,1.5432351186098205,frequency,7638.0,-2.073680406365825,0.0001343409158718008,0,34,[],0.013145366654498503,None,None,64.16394169998239,None,0.2176821666653268,1.7609172852751473,64.3720393999829,None,,60.39394639999955,None,,,,,,qmbami,001,fr,0,2022-04-27_14h49.13.737,Continuous,2022.1.1,None,
1,0,1,0,1,0,1,0,,,,,,,,1.199461645090127,frequency,6805.0,-2.7578700625752406,0.00010578379123646907,0,35,[],0.011577766650589183,None,['space'],65.94330379998428,65.94330379998428,0.20979546665330417,1.4092571117434312,66.15580459998455,65.94330379998428,[-1.2748406000027899],,,,,,,,qmbami,001,fr,0,2022-04-27_14h49.13.737,Continuous,2022.1.1,None,
1,0,1,0,2,0,2,0,,,,,,,,1.8602295170017988,frequency,6063.0,-2.0,9.439698569403431e-05,0,36,[],0.011601166654145345,None,['space'],67.38076840000576,67.38076840000576,0.21098016665200703,2.071209683653806,67.60234209999908,67.38076840000576,[-1.0165774000051897],,,,,,,,qmbami,001,fr,0,2022-04-27_14h49.13.737,Continuous,2022.1.1,None,
1,0,1,0,3,0,3,0,,,,,,,,2.920065857997238,frequency,5402.0,-3.918968194049915,8.783840155557907e-05,0,37,[],0.011810566706117243,None,['space'],69.48057029998745,69.48057029998745,0.21042986668180674,3.1304957246790446,69.69371579997824,69.48057029998745,[-1.676219899993157],,,,,,,,qmbami,001,fr,0,2022-04-27_14h49.13.737,Continuous,2022.1.1,None,
1,0,1,0,4,0,4,0,,,,,,,,2.82113422847121,frequency,4813.0,-5.206635315191105,7.681072659739302e-05,0,38,[],0.011712066654581577,None,['space'],72.64178989999346,72.64178989999346,0.20954186664312147,3.0306760951143317,72.8509281000006,72.64178989999346,[-2.597712799994042],,,,,,,,qmbami,001,fr,0,2022-04-27_14h49.13.737,Continuous,2022.1.1,None,
1,0,1,0,5,0,5,0,,,,,,,,1.6090286194378227,frequency,4288.0,-4.189567687531282,6.405249300773106e-05,0,39,[],0.011545866669621319,None,['space'],75.7002014000027,75.7002014000027,0.2127888666873332,1.821817486125156,75.91217969998252,75.7002014000027,[-2.4880281999940053],,,,,,,,qmbami,001,fr,0,2022-04-27_14h49.13.737,Continuous,2022.1.1,None,
1,0,1,0,6,0,6,0,,,,,,,,1.4523914406485297,frequency,3820.0,-2.0628952936986065,6.370324708811062e-05,0,40,[],0.00807126666768454,None,['space'],77.54843009999604,77.54843009999604,0.20524736665538512,1.6576388073039148,77.76340209998307,77.54843009999604,[-1.4407121000112966],,,,,,,,qmbami,001,fr,0,2022-04-27_14h49.13.737,Continuous,2022.1.1,None,
1,0,1,0,7,0,7,0,,,,,,,,2.031073719222565,frequency,3403.0,-2.835702394282581,5.299906121729778e-05,0,41,[],0.011534966644831002,None,None,79.24156090000179,79.24156090000179,0.2113579666474834,2.2424316858700486,79.45378979999805,79.24156090000179,,,,,,,,,qmbami,001,fr,0,2022-04-27_14h49.13.737,Continuous,2022.1.1,None,
1,0,1,0,8,0,8,0,,,,,,,,1.2186261205038054,frequency,3032.0,-2.0273438566952318,4.5809230375279876e-05,0,42,[],0.011562766652787104,None,['space'],81.51255689997924,81.51255689997924,0.21156396667356603,1.4301900871773714,81.71902950000367,81.51255689997924,[-1.7561030000215396],,,,,,,,qmbami,001,fr,0,2022-04-27_14h49.13.737,Continuous,2022.1.1,None,
1,0,1,0,9,0,9,0,,,,,,,,1.9608588613892377,frequency,2701.0,-1.4776416877580698,6.192152179260997e-05,0,43,[],0.011505466653034091,None,['space'],82.97057000000495,82.97057000000495,0.2111813666706439,2.1720402280598816,83.18319489998976,82.97057000000495,[-1.1515379000047687],,,,,,,,qmbami,001,fr,0,2022-04-27_14h49.13.737,Continuous,2022.1.1,None,
1,0,1,0,10,0,10,0,,,,,,,,2.4305414497806233,frequency,,,,1,43,[],0.011529166687978432,None,['space'],85.17183069998282,85.17183069998282,0.20980236667674035,2.6403438164573636,85.38450289997854,85.17183069998282,[-1.6719786999747157],,,,,,,,qmbami,001,fr,0,2022-04-27_14h49.13.737,Continuous,2022.1.1,None,
2,0,2,0,0,0,0,0,,,,,0.3333333333333333,90.42341849999502,None,2.1756196730642525,frequency,3248.0,-3.198272086042708,4.894952430812481e-05,0,44,[],0.013158066663891077,None,None,91.45762430000468,None,0.2186646666668821,2.3942843397311346,91.66675469998154,None,,87.83622579998337,None,,,,,,qmbami,001,fr,0,2022-04-27_14h49.13.737,Continuous,2022.1.1,None,
2,0,2,0,1,0,1,0,,,,,,,,1.9133201698097255,frequency,2578.0,-2.7332376995448113,5.9167310880956955e-05,0,45,[],0.009117066685575992,0.20215216669021174,['space'],93.86458399999538,93.86458399999538,0.20215216669021174,2.1154723364999373,94.0714896999998,93.86458399999538,[-1.8209913999889977],,,,,,,,qmbami,001,fr,0,2022-04-27_14h49.13.737,Continuous,2022.1.1,None,
2,0,2,0,2,0,2,0,,,,,,,,2.9217351850632016,frequency,2046.0,0.8612955678561165,8.373640188000032e-05,0,46,[],0.011001166683854535,None,['space'],96.01498599999468,96.01498599999468,0.21156436667661183,3.1332995517398134,96.22600169997895,96.01498599999468,[-1.7623988999985158],,,,,,,,qmbami,001,fr,0,2022-04-27_14h49.13.737,Continuous,2022.1.1,None,
2,0,2,0,3,0,3,0,,,,,,,,1.667970316037026,frequency,1624.0,-4.5453939512467425,3.427008249649543e-05,0,47,[],0.011156266671605408,None,"['space', 'space']",99.1699479999952,99.1699479999952,0.20933136667008512,1.8773016827071112,99.37899399999878,99.1699479999952,"[-2.789662399998633, -1.0140449999889825]",,,,,,,,qmbami,001,fr,0,2022-04-27_14h49.13.737,Continuous,2022.1.1,None,
2,0,2,0,4,0,4,0,,,,,,,,2.5979000527588947,frequency,1289.0,0.07278997074461768,5.3991554843628845e-05,0,48,[],0.005301566648995504,None,['space'],101.07481989997905,101.07481989997905,0.19664146666764282,2.7945415194265375,101.28714199998649,101.07481989997905,[-0.4702343000099063],,,,,,,,qmbami,001,fr,0,2022-04-27_14h49.13.737,Continuous,2022.1.1,None,
2,0,2,0,5,0,5,0,,,,,,,,1.910987104951075,frequency,1023.0,-2.2425215815890964,3.477170912122844e-05,0,49,[],0.003883066645357758,0.19270486664026976,['space'],103.91473540000152,103.91473540000152,0.19270486664026976,2.1036919715913447,104.12556939999922,103.91473540000152,[-1.4230245999933686],,,,,,,,qmbami,001,fr,0,2022-04-27_14h49.13.737,Continuous,2022.1.1,None,
2,0,2,0,6,0,6,0,,,,,,,,1.61310753775775,frequency,812.0,-5.0,2.1767747183319346e-05,0,50,[],0.011031066649593413,None,['space'],106.05986839998513,106.05986839998513,0.21038346664863639,1.8234910044063863,106.27226759999758,106.05986839998513,[-1.74399629997788],,,,,,,,qmbami,001,fr,0,2022-04-27_14h49.13.737,Continuous,2022.1.1,None,
2,0,2,0,7,0,7,0,,,,,,,,2.2784530089457955,frequency,644.0,-4.6839741961675445,2.91221422958826e-05,0,51,[],0.010772766632726416,None,None,107.91253149998374,107.91253149998374,0.21021146661951207,2.4886644755653076,108.11959799999022,107.91253149998374,,,,,,,,,qmbami,001,fr,0,2022-04-27_14h49.13.737,Continuous,2022.1.1,None,
2,0,2,0,8,0,8,0,,,,,,,,2.657428373258692,frequency,511.0,-2.100534575579701,5.475008544267143e-05,0,52,[],0.01085806664195843,None,['space'],110.4267912999785,110.4267912999785,0.20951156664523296,2.866939939903925,110.64767649999703,110.4267912999785,[-2.046273600019049],,,,,,,,qmbami,001,fr,0,2022-04-27_14h49.13.737,Continuous,2022.1.1,None,
2,0,2,0,9,0,9,0,,,,,,,,2.5538518303484032,frequency,406.0,-1.0686794661802166,6.742070690377612e-05,0,53,[],0.010901266650762409,None,None,113.32597659999738,113.32597659999738,0.21318076667375863,2.767032597022162,113.53965579997748,113.32597659999738,,,,,,,,,qmbami,001,fr,0,2022-04-27_14h49.13.737,Continuous,2022.1.1,None,
2,0,2,0,10,0,10,0,,,,,,,,1.9239551968347837,frequency,322.0,-3.447057977053709,6.509383196154166e-05,0,54,[],0.009663766686571762,0.20495356668834575,['space'],116.12218360000406,116.12218360000406,0.20495356668834575,2.128908763523129,116.3272416999971,116.12218360000406,[-2.1898335000150837],,,,,,,,qmbami,001,fr,0,2022-04-27_14h49.13.737,Continuous,2022.1.1,None,
2,0,2,0,11,0,11,0,,,,,,,,1.701237770997834,frequency,256.0,-1.1566040921335672,0.00014103799893906436,0,55,[],0.0107322666735854,None,['space'],118.27894079999533,118.27894079999533,0.21000916667981073,1.9112469376776446,118.49382149998564,118.27894079999533,[-1.62658250000095],,,,,,,,qmbami,001,fr,0,2022-04-27_14h49.13.737,Continuous,2022.1.1,None,
2,0,2,0,12,0,12,0,,,,,,,,1.1879454178127582,frequency,203.0,-3.1933971230285856,0.00017971142707748578,0,56,[],0.010700666694901884,None,['space'],120.2191662999976,120.2191662999976,0.21068186667980626,1.3986272844925645,120.43008629998076,120.2191662999976,[-1.3107729999755975],,,,,,,,qmbami,001,fr,0,2022-04-27_14h49.13.737,Continuous,2022.1.1,None,
2,0,2,0,13,0,13,0,,,,,,,,1.7121649722309082,frequency,,,,1,56,[],0.008551566657843068,0.2018288666731678,['space'],121.64404469999135,121.64404469999135,0.2018288666731678,1.913993838904076,121.85365209999145,121.64404469999135,[-0.9284507999836933],,,,,,,,qmbami,001,fr,0,2022-04-27_14h49.13.737,Continuous,2022.1.1,None,
2,0,2,0,14,0,14,0,,,,,,,,2.608229316711427,frequency,128.0,-2.921678828436534,0.000497201505363319,0,57,[],0.01173526665661484,None,['space'],123.5875485999859,123.5875485999859,0.21093666667002253,2.8191659833814495,123.79843009999604,123.5875485999859,[-0.2798012999992352],,,,,,,,qmbami,001,fr,0,2022-04-27_14h49.13.737,Continuous,2022.1.1,None,
3,0,3,0,0,0,0,0,,,,,0.3333333333333333,131.006853400002,None,2.8753561858359107,frequency,4595.0,-5.650951645253486,6.515446912464613e-05,0,58,[],0.01067156664794311,0.2076241666218266,None,132.04200739998487,None,0.2076241666218266,3.0829803524577373,132.25344969998696,None,,126.43677739999839,None,,,,,,qmbami,001,fr,0,2022-04-27_14h49.13.737,Continuous,2022.1.1,None,
3,0,3,0,1,0,1,0,,,,,,,,1.1168155562322246,frequency,3647.0,-4.3797237023759905,4.695463576988914e-05,0,59,[],0.010354966652812436,None,"['space', 'space']",135.15083939998294,135.15083939998294,0.20969596665236168,1.3265115228845863,135.3658837999974,135.15083939998294,"[-2.546278900001198, -0.14779489999637008]",,,,,,,,qmbami,001,fr,0,2022-04-27_14h49.13.737,Continuous,2022.1.1,None,
3,0,3,0,2,0,2,0,,,,,,,,2.6431131824005667,frequency,2895.0,-1.5082916916189584,5.1569436437192444e-05,0,60,[],0.01034276670543477,None,None,136.50238669998362,136.50238669998362,0.20911076670745388,2.8522239491080206,136.71513810000033,136.50238669998362,,,,,,,,,qmbami,001,fr,0,2022-04-27_14h49.13.737,Continuous,2022.1.1,None,
3,0,3,0,3,0,3,0,,,,,,,,1.7565531543290862,frequency,2298.0,0.05894553775364764,8.197203827694756e-05,0,61,[],0.010586766642518342,None,['space'],139.38781279997784,139.38781279997784,0.2146245666372124,1.9711777209662986,139.60207929997705,139.38781279997784,[-2.223642299999483],,,,,,,,qmbami,001,fr,0,2022-04-27_14h49.13.737,Continuous,2022.1.1,None,
3,0,3,0,4,0,4,0,,,,,,,,1.7879361117911543,frequency,1824.0,-5.547499779327641,3.5303909148994726e-05,0,62,[],0.010303666698746383,0.20812296669464558,['space'],141.38118679999025,141.38118679999025,0.20812296669464558,1.9960590784857999,141.5874782000028,141.38118679999025,[-1.401581999991322],,,,,,,,qmbami,001,fr,0,2022-04-27_14h49.13.737,Continuous,2022.1.1,None,
3,0,3,0,5,0,5,0,,,,,,,,1.457624094064869,frequency,1448.0,-0.4860792443014237,4.689441155446769e-05,0,63,[],0.003991666657384485,None,['space'],143.40502399997786,143.40502399997786,0.1953208666818682,1.6529449607467372,143.61655299999984,143.40502399997786,[-0.43335009997827],,,,,,,,qmbami,001,fr,0,2022-04-27_14h49.13.737,Continuous,2022.1.1,None,
3,0,3,0,6,0,6,0,,,,,,,,1.4073019226900585,frequency,1149.0,-8.0,2.0018693710455243e-05,0,64,[],0.007353366672759876,0.19793076667701825,None,145.1028035999916,145.1028035999916,0.19793076667701825,1.6052326893670767,145.31617769997683,145.1028035999916,,,,,,,,,qmbami,001,fr,0,2022-04-27_14h49.13.737,Continuous,2022.1.1,None,
3,0,3,0,7,0,7,0,,,,,,,,2.9478196794488474,frequency,912.0,-5.840166715698109,2.121175009424032e-05,0,65,[],0.010305866628186777,None,None,146.7448929999955,146.7448929999955,0.20743366662645712,3.1552533460753045,146.95789309998509,146.7448929999955,,,,,,,,,qmbami,001,fr,0,2022-04-27_14h49.13.737,Continuous,2022.1.1,None,
3,0,3,0,8,0,8,0,,,,,,,,1.4570470311905592,frequency,724.0,-4.826887692397138,2.4622427671009625e-05,0,66,[],0.010232266678940505,None,None,149.93555080000078,149.93555080000078,0.2092334666813258,1.666280497871885,150.15431959999842,149.93555080000078,,,,,,,,,qmbami,001,fr,0,2022-04-27_14h49.13.737,Continuous,2022.1.1,None,
3,0,3,0,9,0,9,0,,,,,,,,2.266434454787994,frequency,575.0,-5.465696406539314,3.184302711872031e-05,0,67,[],0.010215366666670889,None,['space'],151.63546709998627,151.63546709998627,0.2091112666821573,2.4755457214701515,151.85427459998755,151.63546709998627,[-0.7123681000084616],,,,,,,,qmbami,001,fr,0,2022-04-27_14h49.13.737,Continuous,2022.1.1,None,
3,0,3,0,10,0,10,0,,,,,,,,2.394819142786468,frequency,,,,1,67,[],0.009409766673343256,None,['space'],154.14244629998575,154.14244629998575,0.2086809666652698,2.603500109451738,154.35449060000246,154.14244629998575,[-0.6100784000009298],,,,,,,,qmbami,001,fr,0,2022-04-27_14h49.13.737,Continuous,2022.1.1,None,
3,0,3,0,11,0,11,0,,,,,,,,2.9803227029146795,frequency,362.0,-3.879619237197987,5.528799750258261e-05,0,68,[],0.011181866662809625,None,None,156.78033700000378,156.78033700000378,0.20943376666400582,3.1897564695786853,156.98899670000537,156.78033700000378,,,,,,,,,qmbami,001,fr,0,2022-04-27_14h49.13.737,Continuous,2022.1.1,None,
3,0,3,0,12,0,12,0,,,,,,,,1.787499017575469,frequency,287.0,-6.676427473253504,5.9477555314658637e-05,0,69,[],0.010071766679175198,None,None,159.99432309999247,159.99432309999247,0.2118516666814685,1.9993506842569375,160.203434199997,159.99432309999247,,,,,,,,,qmbami,001,fr,0,2022-04-27_14h49.13.737,Continuous,2022.1.1,None,
3,0,3,0,13,0,13,0,,,,,,,,1.2156721921795248,frequency,228.0,-7.799510951087782,8.579296568363403e-05,0,70,[],0.006792266649426892,None,['space'],162.02063689997885,162.02063689997885,0.20306146665825509,1.41873365883778,162.23668909998378,162.02063689997885,[-1.2084349000069778],,,,,,,,qmbami,001,fr,0,2022-04-27_14h49.13.737,Continuous,2022.1.1,None,
3,0,3,0,14,0,14,0,,,,,,,,1.726116385211378,frequency,181.0,-6.111897277482728,0.00016557040950003314,0,71,['frequency'],0.009801066655199975,None,None,163.48172469998826,163.48172469998826,0.2100363666540943,1.9361527518654722,163.70052419998683,163.48172469998826,,,,"{'estimation': [[125.0, -6.67069156950202], [133.9716828170366, -6.746261211016457], [143.5872943746293, -6.681549463917875], [153.89305166811442, -6.4543370516850045], [164.93848884661162, -6.066466050300769], [166.424521666329, -6.0], [176.77669529663666, -5.568363736377993], [189.46457081379936, -5.025613136669176], [190.1056545692206, -5.0], [203.0630990890585, -4.525601895650665], [217.6376408240306, -4.135481700669881], [226.05510675009623, -4.0], [233.25824788420132, -3.8908825840661487], [249.99999999999937, -3.798458380177204], [267.94336563407256, -3.810911154298138], [287.1745887492579, -3.8599548902951106], [307.78610333622805, -3.875873454936731], [329.87697769322244, -3.810503306416005], [353.55339059327247, -3.653155176411287], [378.929141627598, -3.4287441204119], [406.12619817811606, -3.1848014898161576], [432.4028586802173, -3.0], [435.2752816480601, -2.9806402461964367], [466.5164957684015, -2.8788560349280683], [499.9999999999975, -2.9154302337213935], [514.9633809423115, -3.0], [535.8867312681438, -3.1116391612171355], [574.3491774985143, -3.457396977153535], [615.5722066724546, -3.943939540288339], [619.5193958926989, -4.0], [659.7539553864432, -4.550781554176111], [690.633035194387, -5.0], [707.1067811865431, -5.238807322455529], [757.8582832551941, -5.946450276600353], [762.1239339305281, -6.0], [812.2523963562301, -6.6297767051418015], [849.2375896828188, -7.0], [870.5505632961181, -7.22236928937036], [933.0329915368008, -7.663583865215668], [999.9999999999926, -7.9276060555989165], [1062.1231686685737, -8.0], [1071.7734625362837, -8.011518593137325], [1083.179645880549, -8.0], [1148.698354997026, -7.937940485969929], [1231.1444133449063, -7.759509302031604], [1319.5079107728832, -7.5401063842402625], [1414.2135623730828, -7.339557740724615], [1515.7165665103846, -7.199954958596292], [1624.5047927124542, -7.134441594802297], [1741.1011265922318, -7.119086234476388], [1866.065983073597, -7.0947579674239085], [1976.0609638536207, -7.0], [1999.9999999999802, -6.980150947830528], [2143.5469250725646, -6.7030284115237], [2297.396709994046, -6.2141642257059715], [2343.7466688970403, -6.0], [2462.2888266898062, -5.503837149919017], [2561.378388163353, -5.0], [2639.01582154576, -4.64109557233728], [2772.2585054412707, -4.0], [2828.427124746159, -3.7519873282353142], [3031.4331330207615, -3.002073256750384], [3032.333840187047, -2.9999999999999996], [3249.0095854249043, -2.5455641021972983], [3482.2022531844555, -2.4995047700450286], [3732.1319661471844, -2.892197923700727], [3768.161162458499, -3.0], [3999.9999999999504, -3.665120477831219], [4095.804755163186, -4.0], [4287.093850145118, -4.658006337026432], [4392.010484462315, -5.0], [4594.793419988081, -5.657881750010686], [4737.709295814316, -6.0], [4924.577653379601, -6.450003075335275], [5278.031643091506, -6.847392766552194], [5656.854249492303, -6.779864226161093], [6062.866266041516, -6.260212910456088], [6186.769189186839, -6.0], [6498.019170849792, -5.381896617042668], [6661.496896238318, -5.0], [6964.404506368894, -4.320673879198628], [7114.845558211301, -4.0], [7464.2639322943505, -3.263535488573658], [7627.0385822622075, -3.0], [7999.999999999892, -2.377130613880701]], 'plus_line': [[125.0, -9.532138733810989], [133.9716828170366, -9.533189654246588], [143.5872943746293, -9.486061675111088], [153.89305166811442, -9.296462839630141], [162.0670266230339, -9.0], [164.93848884661162, -8.909443118542423], [176.77669529663666, -8.392039782575834], [184.3524171166923, -8.0], [189.46457081379947, -7.7686115750497855], [203.0630990890585, -7.1860052378860315], [208.38152172714297, -7.0], [217.6376408240306, -6.728306574648947], [233.25824788420132, -6.4476747145284925], [249.99999999999937, -6.310485317109475], [267.94336563407256, -6.270254825733664], [287.1745887492579, -6.260828116397629], [307.78610333622805, -6.231187667308524], [329.87697769322244, -6.15626255884184], [353.55339059327247, -6.024627207887019], [356.82144233961003, -6.0], [378.929141627598, -5.86328823214157], [406.12619817811606, -5.665496700169653], [435.2752816480601, -5.452419524383762], [466.5164957684015, -5.277271917510122], [499.9999999999975, -5.216454719115602], [535.8867312681438, -5.337190120675935], [574.3491774985143, -5.647123933084826], [604.661648351446, -6.0], [615.5722066724546, -6.139484761611255], [659.7539553864432, -6.783893277153842], [673.6655885800518, -7.0], [707.1067811865431, -7.542077043014637], [736.6037234555275, -8.0], [757.8582832551941, -8.349368048461217], [802.0265937804278, -9.0], [812.2523963562301, -9.162312888679537], [870.5505632961181, -9.925701227504463], [878.2312714678743, -10.0], [933.0329915368008, -10.58426302713428], [999.9999999999926, -10.9933556719737], [1002.8838683938454, -11.0], [1071.773462536285, -11.18067456472472], [1148.698354997026, -11.094114123966762], [1173.074533578095, -11.0], [1231.1444133449063, -10.816394298073567], [1319.5079107728832, -10.440062586847127], [1414.2135623730828, -10.036221385493812], [1425.0906003193707, -10.0], [1515.7165665103846, -9.763629151285258], [1624.5047927124563, -9.632361360826375], [1741.1011265922318, -9.615080203400211], [1866.065983073597, -9.62487062719503], [1999.9999999999802, -9.543260382293745], [2143.5469250725646, -9.249608123041256], [2206.2392035781986, -9.0], [2297.396709994046, -8.688184527099974], [2430.531427316634, -8.0], [2462.2888266898062, -7.8531409785987965], [2610.641122806156, -7.0], [2639.01582154576, -6.852375758177805], [2794.779609057097, -6.0], [2828.427124746159, -5.833518363321299], [3023.699754499391, -5.0], [3031.4331330207615, -4.970393213192039], [3249.0095854249043, -4.487514935537922], [3482.2022531844555, -4.420746715347859], [3732.1319661471844, -4.804699003030699], [3797.216512005585, -5.0], [3999.9999999999504, -5.622068286212515], [4102.939710261741, -6.0], [4287.093850145118, -6.6722376644911705], [4380.468342787883, -7.0], [4594.7934199880865, -7.7531991898190356], [4688.819196450641, -8.0], [4924.577653379601, -8.644775655001338], [5199.0295626730895, -9.0], [5278.031643091506, -9.117842713365683], [5656.85424949231, -9.088633875047691], [5717.604775209372, -9.0], [6062.866266041508, -8.573378909562383], [6325.674916676592, -8.0], [6498.019170849792, -7.65117838500891], [6771.845191029323, -7.0], [6964.404506368894, -6.558404053513861], [7234.852430894808, -6.0], [7464.2639322943505, -5.535903438963045], [7851.914571852015, -5.0], [7999.999999999892, -4.798888550775871]], 'minus_line': [[125.0, -4.005509152272606], [133.9716828170366, -4.16590028196893], [143.5872943746293, -4.100550571468907], [147.56764841736245, -4.0], [153.89305166811442, -3.8251307376658708], [164.93848884661162, -3.4173781709663698], [175.65003451948277, -3.0], [176.77669529663666, -2.9531827246902465], [189.46457081379947, -2.4455871326154535], [203.0630990890585, -2.017740302898176], [203.78844505270996, -2.0], [217.6376408240306, -1.6462532686565634], [233.25824788420132, -1.436782122246636], [249.99999999999937, -1.3802708074922578], [267.94336563407256, -1.4427224200668123], [287.1745887492579, -1.5554181100696083], [307.78610333622805, -1.6255701245445122], [329.87697769322244, -1.572810855261413], [353.55339059327247, -1.382312756784947], [378.929141627598, -1.1097500414275854], [389.67521990664073, -1.0], [406.12619817811606, -0.8121406996660865], [435.2752816480601, -0.610748615445818], [466.5164957684015, -0.5631324272534578], [499.9999999999975, -0.6739196015184349], [535.8867312681438, -0.940378944630013], [541.4159474303891, -1.0], [574.3491774985143, -1.2921855147954333], [615.5722066724546, -1.7594893253050492], [632.7926478203053, -2.0], [659.7539553864432, -2.3339651229611498], [707.0773843014238, -3.0], [707.1067811865431, -3.0003888070303075], [757.8582832551941, -3.631496523183644], [790.0949815193113, -4.0], [812.2523963562301, -4.234492377277567], [870.5505632961181, -4.685203542510785], [933.0300222596222, -5.0], [933.0329915368019, -5.0000139017636736], [999.9999999999926, -5.126980157809005], [1071.773462536285, -5.129451514169338], [1148.698354997026, -5.0523384162516125], [1187.54924506775, -5.0], [1231.1444133449063, -4.936715608428221], [1319.5079107728832, -4.82673573022334], [1414.2135623730828, -4.753727311895512], [1515.7165665103846, -4.717180135512366], [1624.5047927124563, -4.702062684642867], [1741.1011265922318, -4.687656704355142], [1866.065983073597, -4.645361317818044], [1999.9999999999802, -4.532885787189377], [2143.5469250725646, -4.30266569568871], [2260.4557892354246, -4.0], [2297.396709994046, -3.899455980727777], [2462.2888266898062, -3.2997528186938396], [2531.1911320594263, -3.0], [2639.01582154576, -2.549853442739762], [2770.9946513498326, -2.0], [2828.427124746159, -1.7642745180089086], [3031.4331330207615, -1.0902698099840302], [3076.366235346929, -1.0], [3249.0095854249043, -0.6283071071641534], [3482.2022531844555, -0.5817998055421175], [3727.659620562275, -1.0], [3732.1319661471844, -1.006637904357045], [3999.9999999999554, -1.743356687968721], [4073.421070159624, -2.0], [4287.093850145118, -2.713404761541779], [4376.729239839882, -3.0], [4594.793419988081, -3.6699153349612215], [4736.75900392946, -4.0], [4924.577653379601, -4.404098775381626], [5278.031643091506, -4.749641065678822], [5656.854249492303, -4.6402594724456225], [6062.866266041501, -4.125329988360519], [6124.17838844317, -4.0], [6498.019170849792, -3.2536029019468113], [6606.984637025, -2.9999999999999996], [6964.404506368894, -2.1992479163070797], [7053.159905712439, -2.0], [7464.2639322943505, -1.089361056008277], [7511.3415520454955, -1.0], [7999.999999999882, -0.033181522366174554]]}",,,,,qmbami,001,fr,0,2022-04-27_14h49.13.737,Continuous,2022.1.1,None,
4,0,4,0,0,0,0,0,,,,,,167.96932069998002,None,1.6348432655570222,none,1191.0,-0.09752806054958367,5.146035420208481e-05,0,26,['frequency'],0.012932166660903022,None,None,168.98500980000244,None,0.21434156666509807,1.8491848322221203,169.20590729999822,None,,165.45527740000398,None,,"[0.3333333333333333, 0.5833333333333334, 0.16666666666666666, 0.3333333333333333, 0.3333333333333333, 0.3333333333333333, 0.16666666666666666, 0.5833333333333334, 0.16666666666666666, 0.3333333333333333, 0.16666666666666666, 0.16666666666666666, 0.16666666666666666, 0.5833333333333334, 0.3333333333333333]",,,,qmbami,001,fr,0,2022-04-27_14h49.13.737,Continuous,2022.1.1,None,
4,0,4,0,1,0,1,0,,,,,,,,2.2902413917796407,none,,,,1,26,['frequency'],0.009145066636847332,None,['space'],170.8611875999777,170.8611875999777,0.21545186662115157,2.5056932584007923,171.07976309998776,170.8611875999777,[-1.2169645999965724],,,,,,,,qmbami,001,fr,0,2022-04-27_14h49.13.737,Continuous,2022.1.1,None,
4,0,4,0,2,0,2,0,,,,,,,,1.8125895489286243,none,148.0,-2.1757905659300407,0.00040318335992216644,0,27,['frequency'],0.010229566658381373,None,None,173.39875429999665,173.39875429999665,0.20904956667800434,2.0216391156066287,173.60675009997794,173.39875429999665,,,,,,,,,qmbami,001,fr,0,2022-04-27_14h49.13.737,Continuous,2022.1.1,None,
4,0,4,0,3,0,3,0,,,,,,,,2.32857382498693,none,187.0,-1.8917626473401215,0.00025157174044652584,0,28,['frequency'],0.009308566659456119,None,['space'],175.44926080000005,175.44926080000005,0.2086883666634094,2.5372621916503393,175.6555503999989,175.44926080000005,[-1.4697933999996167],,,,,,,,qmbami,001,fr,0,2022-04-27_14h49.13.737,Continuous,2022.1.1,None,
4,0,4,0,4,0,4,0,,,,,,,,2.75344478497481,none,945.0,-2.0695899174102843,3.3481082331509476e-05,0,29,['frequency'],0.00909956663963385,None,None,178.01456399998278,178.01456399998278,0.20821236664778553,2.9616571516225956,178.22491329998593,178.01456399998278,,,,,,,,,qmbami,001,fr,0,2022-04-27_14h49.13.737,Continuous,2022.1.1,None,
4,0,4,0,5,0,5,0,,,,,,,,1.7465119769214372,none,562.0,-0.5894951420604672,5.7719379079540837e-05,0,30,['frequency'],0.006460666656494141,0.1992331666406244,['space'],181.0068520999921,181.0068520999921,0.1992331666406244,1.9457451435620616,181.21379429998342,181.0068520999921,[-2.387254200002644],,,,,,,,qmbami,001,fr,0,2022-04-27_14h49.13.737,Continuous,2022.1.1,None,
4,0,4,0,6,0,6,0,,,,,,,,1.6697494552018117,none,631.0,-0.367181542743319,4.8962765288889236e-05,0,31,['frequency'],0.009007266664411873,None,None,182.9913636999845,182.9913636999845,0.2085612666560337,1.8783107218578454,183.20239479999873,182.9913636999845,,,,,,,,,qmbami,001,fr,0,2022-04-27_14h49.13.737,Continuous,2022.1.1,None,
4,0,4,0,7,0,7,0,,,,,,,,2.0435583551942074,none,354.0,-2.0,7.02951783824607e-05,0,32,['frequency'],0.00914546669810079,None,['space'],184.90399429999525,184.90399429999525,0.22824506668257527,2.2718034218767826,185.1260132000025,184.90399429999525,[-1.3246340999903623],,,,,,,,qmbami,001,fr,0,2022-04-27_14h49.13.737,Continuous,2022.1.1,None,
4,0,4,0,8,0,8,0,,,,,,,,1.3621276772540376,none,446.0,-1.287496917119759,6.39811463946247e-05,0,33,['frequency'],0.008720066660316661,None,['space'],187.1954899999837,187.1954899999837,0.2087781666778028,1.5709058439318404,187.40348049998283,187.1954899999837,[-1.3755646999925375],,,,,,,,qmbami,001,fr,0,2022-04-27_14h49.13.737,Continuous,2022.1.1,None,
4,0,4,0,9,0,9,0,,,,,,,,1.3131436898204336,none,210.0,-1.7758593526597728,0.00020039081571011336,0,34,['frequency'],0.008890966651961207,None,['space'],188.79709449998336,188.79709449998336,0.20838076664949767,1.5215244564699313,189.00324609997915,188.79709449998336,[-1.0093560000241268],,,,,,,,qmbami,001,fr,0,2022-04-27_14h49.13.737,Continuous,2022.1.1,None,
4,0,4,0,10,0,10,0,,,,,,,,1.2631437406079635,none,315.0,-0.9185366137589908,8.872442094867281e-05,0,35,['frequency'],0.008728066633921117,None,['space'],190.34910339998896,190.34910339998896,0.20794816664420068,1.4710919072521642,190.55637809998007,190.34910339998896,[-0.8815461999911349],,,,,,,,qmbami,001,fr,0,2022-04-27_14h49.13.737,Continuous,2022.1.1,None,
5,0,5,0,0,0,0,0,,,,,0.5833333333333334,194.23003569999128,None,1.7468063100435811,both,4002.0,-4.329041263025067,5.1077465758943755e-05,0,26,['frequency'],0.012739466677885503,None,None,195.2619000999839,None,0.23122726668952964,1.9780335767331108,195.48109319998184,None,,191.84456179998233,None,,,,,,qmbami,001,fr,0,2022-04-27_14h49.13.737,Continuous,2022.1.1,None,
5,0,5,0,1,0,1,0,,,,,,,,1.7468063100435811,both,2671.0,-1.7682698765106706,6.140481671456801e-05,0,27,['frequency'],0.008303466689540073,None,None,197.25516249999055,197.25516249999055,0.20715046668192372,1.9539567767255048,197.46457549999468,197.25516249999055,,,,,,,,,qmbami,001,fr,0,2022-04-27_14h49.13.737,Continuous,2022.1.1,None,
5,0,5,0,2,0,2,0,,,,,,,,1.7468063100435811,both,1783.0,2.855374706325176,9.031765984926291e-05,0,28,['frequency'],0.008556466636946425,None,['space'],199.24192199998652,199.24192199998652,0.20620166664593853,1.9530079766895196,199.45108509997954,199.24192199998652,[-1.4213068999815732],,,,,,,,qmbami,001,fr,0,2022-04-27_14h49.13.737,Continuous,2022.1.1,None,
5,0,5,0,3,0,3,0,,,,,,,,1.7468063100435811,both,1190.0,-0.976403743708224,4.6470761825908056e-05,0,29,['frequency'],0.004883866669842973,0.1958241666725371,['space'],201.22902589998557,201.22902589998557,0.1958241666725371,1.9426304767161182,201.43440840000403,201.22902589998557,[-1.585191800026223],,,,,,,,qmbami,001,fr,0,2022-04-27_14h49.13.737,Continuous,2022.1.1,None,
5,0,5,0,4,0,4,0,,,,,,,,1.7468063100435811,both,,,,1,29,['frequency'],0.008762266661506146,None,['space'],203.2123586999951,203.2123586999951,0.21534316666657105,1.9621494767101522,203.42773959998158,203.2123586999951,[-1.6007531000068411],,,,,,,,qmbami,001,fr,0,2022-04-27_14h49.13.737,Continuous,2022.1.1,None,
5,0,5,0,5,0,5,0,,,,,,,,1.7468063100435811,both,530.0,0.4358869822220674,7.020065511218761e-05,0,30,['frequency'],0.009546266664983705,None,['space'],205.19767890000367,205.19767890000367,0.20926306664478034,1.9560693766883614,205.40748419999727,205.19767890000367,[-1.5222355000150856],,,,,,,,qmbami,001,fr,0,2022-04-27_14h49.13.737,Continuous,2022.1.1,None,
5,0,5,0,6,0,6,0,,,,,,,,1.7468063100435811,both,354.0,-2.0,7.02951783824607e-05,0,31,['frequency'],0.004335166682722047,None,['space'],207.18772960000206,207.18772960000206,0.19591886666603386,1.942725176709615,207.40057989998604,207.18772960000206,[-1.6396559000131674],,,,,,,,qmbami,001,fr,0,2022-04-27_14h49.13.737,Continuous,2022.1.1,None,
5,0,5,0,7,0,7,0,,,,,,,,1.7468063100435811,both,236.0,-1.8024832055399451,0.00015838463085423104,0,32,['frequency'],0.007801266649039462,None,['space'],209.17996519998997,209.17996519998997,0.20758076664060354,1.9543870766841847,209.39145399999688,209.17996519998997,[-1.4884305000014137],,,,,,,,qmbami,001,fr,0,2022-04-27_14h49.13.737,Continuous,2022.1.1,None,
5,0,5,0,8,0,8,0,,,,,,,,1.7468063100435811,both,158.0,-2.1754657739905916,0.0003338951053940137,0,33,['frequency'],0.008249966689618304,None,['space'],211.1709153999982,211.1709153999982,0.2075991666642949,1.954405476707876,211.37822099999175,211.1709153999982,[-1.4631793999869842],,,,,,,,qmbami,001,fr,0,2022-04-27_14h49.13.737,Continuous,2022.1.1,None,
6,0,6,0,0,0,0,0,,,,,,215.46165019998443,None,2.2095726926844064,none,966.0,-1.6579563266815807,3.559912944628774e-05,0,36,['frequency'],0.01148476664093323,None,None,216.49772299997858,None,0.21333746664458886,2.4229101593289952,216.71122870000545,None,,213.15721380000468,None,,"[0.5833333333333334, 0.5833333333333334, 0.16666666666666666, 0.16666666666666666, 0.3333333333333333, 0.3333333333333333, 0.5833333333333334, 0.3333333333333333, 0.3333333333333333, 0.3333333333333333, 0.3333333333333333, 0.3333333333333333, 0.5833333333333334, 0.5833333333333334, 0.16666666666666666]",,,,qmbami,001,fr,0,2022-04-27_14h49.13.737,Continuous,2022.1.1,None,
6,0,6,0,1,0,1,0,,,,,,,,2.6252726786191056,none,543.0,0.022768452378230886,6.490659978469758e-05,0,37,['frequency'],0.002634366654092446,0.19316566665656865,None,218.95265389999258,218.95265389999258,0.19316566665656865,2.8184383452756743,219.16247310000472,218.95265389999258,,,,,,,,,qmbami,001,fr,0,2022-04-27_14h49.13.737,Continuous,2022.1.1,None,
6,0,6,0,2,0,2,0,,,,,,,,1.335846830454491,none,2894.0,-1.1347498714690012,5.389012235540469e-05,0,38,['frequency'],0.006060466665076092,None,"['space', 'space']",221.81659740000032,221.81659740000032,0.20478696667123586,1.540633797125727,222.03289589998894,221.81659740000032,"[-2.5408514000009745, -0.5731776999891736]",,,,,,,,qmbami,001,fr,0,2022-04-27_14h49.13.737,Continuous,2022.1.1,None,
6,0,6,0,3,0,3,0,,,,,,,,2.1174888983905324,none,323.0,-0.0260491994676737,9.625516000288748e-05,0,39,['frequency'],0.007855866657337174,None,['space'],223.40065369999502,223.40065369999502,0.20580756667186506,2.3232964650623975,223.61062530000345,223.40065369999502,[-0.8920518000086304],,,,,,,,qmbami,001,fr,0,2022-04-27_14h49.13.737,Continuous,2022.1.1,None,
6,0,6,0,4,0,4,0,,,,,,,,1.2593744632373651,none,767.0,-1.404015523018475,3.391795739699781e-05,0,40,['frequency'],0.001068766665412113,0.19418916667927988,['space'],225.76298020000104,225.76298020000104,0.19418916667927988,1.453563629916645,225.97105579997879,225.76298020000104,[-1.6873323999752756],,,,,,,,qmbami,001,fr,0,2022-04-27_14h49.13.737,Continuous,2022.1.1,None,
6,0,6,0,5,0,5,0,,,,,,,,1.276022527276429,none,,,,1,40,['frequency'],0.000917766650673002,0.1918785666639451,['space'],227.26476120000007,227.26476120000007,0.1918785666639451,1.467901093940374,227.47658610000508,227.26476120000007,[-1.060403600014979],,,,,,,,qmbami,001,fr,0,2022-04-27_14h49.13.737,Continuous,2022.1.1,None,
6,0,6,0,6,0,6,0,,,,,,,,1.2934076789812456,none,1823.0,2.730141160663629,9.149797243841435e-05,0,41,['frequency'],0.004950766655383632,None,None,228.77649659998133,228.77649659998133,0.19517896667821333,1.488586645659459,228.98944049997954,228.77649659998133,,,,,,,,,qmbami,001,fr,0,2022-04-27_14h49.13.737,Continuous,2022.1.1,None,
6,0,6,0,7,0,7,0,,,,,,,,1.339138993871352,none,609.0,-0.22392309449604253,5.3055108414325605e-05,0,42,['frequency'],0.003629566665040329,0.19474986667046323,['space'],230.31115779999527,230.31115779999527,0.19474986667046323,1.5338888605418153,230.51983639999526,230.31115779999527,[-1.0994425000099],,,,,,,,qmbami,001,fr,0,2022-04-27_14h49.13.737,Continuous,2022.1.1,None,
6,0,6,0,8,0,8,0,,,,,,,,1.6163433945986834,none,4594.0,-1.9863185668341417,9.929708792139938e-05,0,43,['frequency'],0.007737366657238454,None,['space'],231.89175680000335,231.89175680000335,0.20713716666796245,1.8234805612666458,232.102521599998,231.89175680000335,[-1.0801206000032835],,,,,,,,qmbami,001,fr,0,2022-04-27_14h49.13.737,Continuous,2022.1.1,None,
6,0,6,0,9,0,9,0,,,,,,,,1.073445656509678,none,6883.0,-4.804777991288376,8.493429158500009e-05,0,44,['frequency'],0.003534766670782119,0.19492456666193902,['space'],233.74747839997872,233.74747839997872,0.19492456666193902,1.268370223171617,233.95763419999275,233.74747839997872,[-1.4153250000090338],,,,,,,,qmbami,001,fr,0,2022-04-27_14h49.13.737,Continuous,2022.1.1,None,
6,0,6,0,10,0,10,0,,,,,,,,2.111295426899507,none,484.0,-0.10210687404074537,7.14177414704311e-05,0,45,['frequency'],0.00606666665407829,None,['space'],235.06333199999062,235.06333199999062,0.21249846665887162,2.3237938935583786,235.28401099998155,235.06333199999062,[-0.7791253000032157],,,,,,,,qmbami,001,fr,0,2022-04-27_14h49.13.737,Continuous,2022.1.1,None,
6,0,6,0,11,0,11,0,,,,,,,,2.1647841197227704,none,1447.0,1.359513054200535,5.8025389003971655e-05,0,46,['frequency'],0.007499766652472317,None,['space'],237.4256427999935,237.4256427999935,0.20852326665772125,2.3733073863804917,237.6423157999816,237.4256427999935,[-1.8932537999935448],,,,,,,,qmbami,001,fr,0,2022-04-27_14h49.13.737,Continuous,2022.1.1,None,
6,0,6,0,12,0,12,0,,,,,,,,2.7666521733403124,none,2297.0,-1.0,7.254378268487177e-05,0,47,['frequency'],0.0037744666915386915,None,None,239.83679529998335,239.83679529998335,0.19355296666617505,2.9602051400064875,240.04715850000503,239.83679529998335,,,,,,,,,qmbami,001,fr,0,2022-04-27_14h49.13.737,Continuous,2022.1.1,None,
7,0,7,0,0,0,0,0,,,,,,244.8039734000049,None,2.2041590146087326,time,1261.0,-1.1381582312599796,4.7575217982392524e-05,0,26,['frequency'],0.01274716664920561,None,None,245.82739579997724,None,0.22195486663258635,2.426113881241319,246.03747919999296,None,,242.8469305000035,None,,"[0.16666666666666666, 0.5833333333333334, 0.16666666666666666, 0.3333333333333333, 0.3333333333333333, 0.16666666666666666, 0.16666666666666666, 0.16666666666666666, 0.16666666666666666, 0.3333333333333333, 0.5833333333333334, 0.5833333333333334, 0.3333333333333333, 0.16666666666666666, 0.5833333333333334]",,,,qmbami,001,fr,0,2022-04-27_14h49.13.737,Continuous,2022.1.1,None,
7,0,7,0,1,0,1,0,,,,,,,,2.2041590146087326,time,140.0,-2.077391339540701,0.00046384907336708943,0,27,['frequency'],0.002500166679965332,0.19381766667356715,None,248.26263139999355,248.26263139999355,0.19381766667356715,2.3979766812823,248.46801459998824,248.26263139999355,,,,,,,,,qmbami,001,fr,0,2022-04-27_14h49.13.737,Continuous,2022.1.1,None,
7,0,7,0,2,0,2,0,,,,,,,,2.2041590146087326,time,281.0,-0.4931094708053003,0.0001272102157915224,0,28,['frequency'],0.0004848666430916637,0.19206826665322296,['space'],250.70544979997794,250.70544979997794,0.19206826665322296,2.3962272812619556,250.9189963999961,250.70544979997794,[-1.9262592000013683],,,,,,,,qmbami,001,fr,0,2022-04-27_14h49.13.737,Continuous,2022.1.1,None,
7,0,7,0,3,0,3,0,,,,,,,,2.2041590146087326,time,2120.0,0.07081883561210844,7.810609043465763e-05,0,29,['frequency'],0.00733786664204672,None,None,253.1439420999959,253.1439420999959,0.20843816665001214,2.412597181258745,253.35805609999807,253.1439420999959,,,,,,,,,qmbami,001,fr,0,2022-04-27_14h49.13.737,Continuous,2022.1.1,None,
7,0,7,0,4,0,4,0,,,,,,,,2.2041590146087326,time,446.0,0.34443693337794695,7.720558355224726e-05,0,30,['frequency'],0.007314366637729108,None,None,255.58477809999022,255.58477809999022,0.20517906663008034,2.409338081238813,255.79598769999575,255.58477809999022,,,,,,,,,qmbami,001,fr,0,2022-04-27_14h49.13.737,Continuous,2022.1.1,None,
7,0,7,0,5,0,5,0,,,,,,,,2.2041590146087326,time,177.0,-2.0065378795289304,0.0002771768309939781,0,31,['frequency'],0.007252666662679985,None,['space'],258.0323317000002,258.0323317000002,0.20705046667717397,2.4112094812859066,258.2475085000042,258.0323317000002,[-1.924874299991643],,,,,,,,qmbami,001,fr,0,2022-04-27_14h49.13.737,Continuous,2022.1.1,None,
7,0,7,0,6,0,6,0,,,,,,,,2.2041590146087326,time,1415.0,-0.9813442275202775,4.502707550139132e-05,0,32,['frequency'],0.0073358666559215635,None,['space'],260.48352359997807,260.48352359997807,0.2062761666602455,2.410435181268978,260.6988722999813,260.48352359997807,[-2.0552212000184227],,,,,,,,qmbami,001,fr,0,2022-04-27_14h49.13.737,Continuous,2022.1.1,None,
7,0,7,0,7,0,7,0,,,,,,,,2.2041590146087326,time,668.0,-0.5262692815052776,4.502026489658381e-05,0,33,['frequency'],0.016596933302935213,None,None,262.93594409999787,262.93594409999787,0.23709933331701905,2.4412583479257517,263.1642998000025,262.93594409999787,,,,,,,,,qmbami,001,fr,0,2022-04-27_14h49.13.737,Continuous,2022.1.1,None,
7,0,7,0,8,0,8,0,,,,,,,,2.2041590146087326,time,1001.0,-1.9950955750889972,3.504510664666997e-05,0,34,['frequency'],0.007141166686778888,None,None,265.3949694999901,265.3949694999901,0.20501896666246466,2.4091779812711973,265.60696409997763,265.3949694999901,,,,,,,,,qmbami,001,fr,0,2022-04-27_14h49.13.737,Continuous,2022.1.1,None,
7,0,7,0,9,0,9,0,,,,,,,,2.2041590146087326,time,315.0,-0.20348310132263925,9.63376058719064e-05,0,35,['frequency'],0.006880966655444354,None,None,267.8453865000047,267.8453865000047,0.2029224666475784,2.407081481256311,268.0552822999889,267.8453865000047,,,,,,,,,qmbami,001,fr,0,2022-04-27_14h49.13.737,Continuous,2022.1.1,None,
7,0,7,0,10,0,10,0,,,,,,,,2.2041590146087326,time,,,,1,35,['frequency'],0.012382533313939348,None,['space'],270.30085099997814,270.30085099997814,0.2344661333190743,2.438625147927807,270.53184879999026,270.30085099997814,[-1.8414771999814548],,,,,,,,qmbami,001,fr,0,2022-04-27_14h49.13.737,Continuous,2022.1.1,None,
7,0,7,0,11,0,11,0,,,,,,,,2.2041590146087326,time,250.0,-1.764310415803593,0.00013669558361940646,0,36,['frequency'],0.00437766665709205,0.1936606666422449,None,272.7553796999855,272.7553796999855,0.1936606666422449,2.3978196812509776,272.95759279999766,272.7553796999855,,,,,,,,,qmbami,001,fr,0,2022-04-27_14h49.13.737,Continuous,2022.1.1,None,
7,0,7,0,12,0,12,0,,,,,,,,2.2041590146087326,time,125.0,-2.1017783964653103,0.0005673892255749497,0,37,['frequency'],0.002617866644868627,0.19277116665034555,['space'],275.1917085000023,275.1917085000023,0.19277116665034555,2.396930181259078,275.39603119998355,275.1917085000023,[-1.675490900001023],,,,,,,,qmbami,001,fr,0,2022-04-27_14h49.13.737,Continuous,2022.1.1,None,
7,0,7,0,13,0,13,0,,,,,,,,2.2041590146087326,time,354.0,-2.0,7.02951783824607e-05,0,38,['frequency'],0.01556613331194967,None,['space'],277.63475569998263,277.63475569998263,0.24009233331889845,2.444251347927631,277.87150369997835,277.63475569998263,[-2.006887399998959],,,,,,,,qmbami,001,fr,0,2022-04-27_14h49.13.737,Continuous,2022.1.1,None,
8,0,8,0,0,0,0,0,,,,,,282.84866459999466,None,1.523156043205882,none,1097.0,-4.395072774264129,2.900539481439875e-05,0,48,['frequency'],0.013028366636717692,None,None,283.8637140999781,None,0.218843766633654,1.741999809839536,284.07549669998116,None,,280.09517570000025,None,,"[0.5833333333333334, 0.3333333333333333, 0.3333333333333333, 0.5833333333333334, 0.3333333333333333, 0.16666666666666666, 0.3333333333333333, 0.16666666666666666, 0.16666666666666666, 0.3333333333333333, 0.5833333333333334, 0.5833333333333334, 0.3333333333333333, 0.5833333333333334, 0.3333333333333333]",,,,qmbami,001,fr,0,2022-04-27_14h49.13.737,Continuous,2022.1.1,None,
8,0,8,0,1,0,1,0,,,,,,,,2.23520179088202,none,1644.0,-1.5111665630046964,4.935776478957209e-05,0,49,['frequency'],0.006501966650830582,None,None,285.6330814999819,285.6330814999819,0.20504106665612198,2.440242857538142,285.84280990000116,285.6330814999819,,,,,,,,,qmbami,001,fr,0,2022-04-27_14h49.13.737,Continuous,2022.1.1,None,
8,0,8,0,2,0,2,0,,,,,,,,2.527314090870152,none,194.0,-3.9556256222656954,0.00018219875594322515,0,50,['frequency'],0.016384533315431327,None,None,288.11249800000223,288.11249800000223,0.20817733331932686,2.7354914241894788,288.3260204999824,288.11249800000223,,,,,,,,,qmbami,001,fr,0,2022-04-27_14h49.13.737,Continuous,2022.1.1,None,
8,0,8,0,3,0,3,0,,,,,,,,1.811689698488522,none,2071.0,-0.33026660317938816,7.353574568347269e-05,0,51,['frequency'],0.006612266646698117,None,['space'],290.88725319999503,290.88725319999503,0.20950096665183082,2.021190665140353,291.09524629998486,290.88725319999503,[0.0682686000072863],,,,,,,,qmbami,001,fr,0,2022-04-27_14h49.13.737,Continuous,2022.1.1,None,
8,0,8,0,4,0,4,0,,,,,,,,1.4231881192798346,none,388.0,-0.40696348586760434,7.602298245989002e-05,0,52,['frequency'],0.006613766658119857,0.2042040666565299,None,292.9414637000009,292.9414637000009,0.2042040666565299,1.6273921859363645,293.14545429998543,292.9414637000009,,,,,,,,,qmbami,001,fr,0,2022-04-27_14h49.13.737,Continuous,2022.1.1,None,
8,0,8,0,5,0,5,0,,,,,,,,2.306836799138251,none,308.0,-7.0,4.736498786701987e-05,0,53,['frequency'],0.016172433301107958,None,['space'],294.6028610999929,294.6028610999929,0.2351542333199177,2.5419910324581685,294.8308255999873,294.6028610999929,[-1.2306794000032824],,,,,,,,qmbami,001,fr,0,2022-04-27_14h49.13.737,Continuous,2022.1.1,None,
8,0,8,0,6,0,6,0,,,,,,,,2.191095516019474,none,137.0,-6.295189688267131,0.00029836021633535096,0,54,['frequency'],0.004921566636767238,0.19880576664581895,None,297.16291079999064,297.16291079999064,0.19880576664581895,2.389901282665293,297.36777159999474,297.16291079999064,,,,,,,,,qmbami,001,fr,0,2022-04-27_14h49.13.737,Continuous,2022.1.1,None,
8,0,8,0,7,0,7,0,,,,,,,,1.6367413303218346,none,274.0,-3.183484116745171,9.846641829154332e-05,0,55,['frequency'],0.015892733325017616,None,None,299.5917585999996,299.5917585999996,0.21152443333994597,1.8482657636617805,299.8044292999839,299.5917585999996,,,,,,,,,qmbami,001,fr,0,2022-04-27_14h49.13.737,Continuous,2022.1.1,None,
8,0,8,0,8,0,8,0,,,,,,,,1.2405862444377949,none,,,,1,55,['frequency'],0.00232716670143418,None,['space'],301.47231769998325,301.47231769998325,0.19329546668450348,1.4338817111222983,301.68371909999405,301.47231769998325,[-1.3010405999957584],,,,,,,,qmbami,001,fr,0,2022-04-27_14h49.13.737,Continuous,2022.1.1,None,
8,0,8,0,9,0,9,0,,,,,,,,1.2285474626090793,none,244.0,-5.085250128989235,9.980843440659287e-05,0,56,['frequency'],0.003497966652503237,0.19376846664818004,None,302.9548925999843,302.9548925999843,0.19376846664818004,1.4223159292572594,303.163023000001,302.9548925999843,,,,,,,,,qmbami,001,fr,0,2022-04-27_14h49.13.737,Continuous,2022.1.1,None,
8,0,8,0,10,0,10,0,,,,,,,,1.719389360800953,none,581.0,-2.8858036553052795,4.218433029696873e-05,0,57,['frequency'],0.002126166655216366,0.19157996666035615,None,304.4215254999872,304.4215254999872,0.19157996666035615,1.910969327461309,304.6245570000028,304.4215254999872,,,,,,,,,qmbami,001,fr,0,2022-04-27_14h49.13.737,Continuous,2022.1.1,None,
8,0,8,0,11,0,11,0,,,,,,,,2.474496996443944,none,173.0,-4.674576647754099,0.00021237566563646573,0,58,['frequency'],0.002292566670803353,0.19431456667371094,['space'],306.37458509998396,306.37458509998396,0.19431456667371094,2.668811563117655,306.58347969999886,306.37458509998396,[-1.3230154999764636],,,,,,,,qmbami,001,fr,0,2022-04-27_14h49.13.737,Continuous,2022.1.1,None,
9,0,9,0,0,0,0,0,,,,,0.5833333333333334,318.57533739999053,None,2.0248447213543797,both,7908.0,-5.760033110350368,9.209691766251192e-05,0,34,['frequency'],0.009838266705628484,0.2047610666777473,None,319.59120689998963,None,0.2047610666777473,2.229605788032127,319.8022595999937,None,,309.091067500005,None,,,,,,qmbami,001,fr,0,2022-04-27_14h49.13.737,Continuous,2022.1.1,None,
9,0,9,0,1,0,1,0,,,,,,,,2.0248447213543797,both,5278.0,-2.0,0.00011318735525289372,0,35,['frequency'],0.005947966652456671,None,['space'],321.8518253999937,321.8518253999937,0.20765276666497812,2.2324974880193578,322.06338079998386,321.8518253999937,[-1.6323967000062112],,,,,,,,qmbami,001,fr,0,2022-04-27_14h49.13.737,Continuous,2022.1.1,None,
9,0,9,0,2,0,2,0,,,,,,,,2.0248447213543797,both,3523.0,-2.1074797139504335,5.928674192228742e-05,0,36,['frequency'],0.006141166639281437,None,['space'],324.12420219997875,324.12420219997875,0.20517406665021554,2.230018788004595,324.33125550000113,324.12420219997875,[-1.9045122000097763],,,,,,,,qmbami,001,fr,0,2022-04-27_14h49.13.737,Continuous,2022.1.1,None,
9,0,9,0,3,0,3,0,,,,,,,,2.0248447213543797,both,2351.0,1.3171015984408365,9.611599566125255e-05,0,37,['frequency'],0.006047266680980101,None,['space'],326.39199969999027,326.39199969999027,0.20558936666930094,2.2304340880236806,326.6025388999842,326.39199969999027,[-1.80446889999439],,,,,,,,qmbami,001,fr,0,2022-04-27_14h49.13.737,Continuous,2022.1.1,None,
9,0,9,0,4,0,4,0,,,,,,,,2.0248447213543797,both,1569.0,1.340867354207203,6.31676510054075e-05,0,38,['frequency'],0.006044866662705317,None,['space'],328.6616992999916,328.6616992999916,0.20339636667631567,2.2282410880306953,328.87055239998153,328.6616992999916,[-1.8819260000018403],,,,,,,,qmbami,001,fr,0,2022-04-27_14h49.13.737,Continuous,2022.1.1,None,
9,0,9,0,5,0,5,0,,,,,,,,2.0248447213543797,both,1047.0,-1.5423112023189784,3.853143515682017e-05,0,39,['frequency'],0.006026866642059758,None,['space'],330.9314119000046,330.9314119000046,0.20561166663537733,2.230456387989757,331.1392022999935,330.9314119000046,[-1.8318605000094976],,,,,,,,qmbami,001,fr,0,2022-04-27_14h49.13.737,Continuous,2022.1.1,None,
9,0,9,0,6,0,6,0,,,,,,,,2.0248447213543797,both,699.0,-0.9862884793150772,4.0271286175311646e-05,0,40,['frequency'],0.005807866662507877,None,['space'],333.20002119999845,333.20002119999845,0.2046539666771423,2.229498688031522,333.4106257999956,333.20002119999845,[-1.9400523999938741],,,,,,,,qmbami,001,fr,0,2022-04-27_14h49.13.737,Continuous,2022.1.1,None,
9,0,9,0,7,0,7,0,,,,,,,,2.0248447213543797,both,467.0,-0.9878969063506833,6.52688585763046e-05,0,41,['frequency'],0.004665266664233059,None,['space'],335.46911179999006,335.46911179999006,0.200545866653556,2.2253905880079357,335.67879059998086,335.46911179999006,[-1.8572478999849409],,,,,,,,qmbami,001,fr,0,2022-04-27_14h49.13.737,Continuous,2022.1.1,None,
9,0,9,0,8,0,8,0,,,,,,,,2.0248447213543797,both,,,,1,41,['frequency'],0.00600006667082198,0.2032427666708827,['space'],337.7379515999928,337.7379515999928,0.2032427666708827,2.2280874880252624,337.9424133999855,337.7379515999928,[-1.8057047000038438],,,,,,,,qmbami,001,fr,0,2022-04-27_14h49.13.737,Continuous,2022.1.1,None,
9,0,9,0,9,0,9,0,,,,,,,,2.0248447213543797,both,208.0,-1.8117203066784076,0.00020274586290986989,0,42,['frequency'],0.003047266654903069,0.1926964666636195,None,339.99653370000306,339.99653370000306,0.1926964666636195,2.217541188017999,340.206172199978,339.99653370000306,,,,,,,,,qmbami,001,fr,0,2022-04-27_14h49.13.737,Continuous,2022.1.1,None,
10,0,10,0,0,0,0,0,,,,,0.5833333333333334,344.31524880000507,None,1.6374532468544254,both,7127.0,-6.5057173672585495,7.332627319272698e-05,0,43,['frequency'],0.011520666623255238,None,None,345.3592424999806,None,0.22202176664723083,1.8594750135016562,345.56943859998137,None,,342.25776320000296,None,,,,,,qmbami,001,fr,0,2022-04-27_14h49.13.737,Continuous,2022.1.1,None,
10,0,10,0,1,0,1,0,,,,,,,,1.6374532468544254,both,4757.0,-5.282296291671856,7.404706626378559e-05,0,44,['frequency'],0.0055395666568074375,None,['space'],347.232469199982,347.232469199982,0.2046010666526854,1.8420543135071108,347.44650739998906,347.232469199982,[-1.3648366999987047],,,,,,,,qmbami,001,fr,0,2022-04-27_14h49.13.737,Continuous,2022.1.1,None,
10,0,10,0,2,0,2,0,,,,,,,,1.6374532468544254,both,3175.0,-3.1263698756594143,4.846231895762885e-05,0,45,['frequency'],0.014595433312933892,None,['space'],349.1118682999804,349.1118682999804,0.23418043332640082,1.8716336801808262,349.340965099982,349.1118682999804,[-1.6596265000116546],,,,,,,,qmbami,001,fr,0,2022-04-27_14h49.13.737,Continuous,2022.1.1,None,
10,0,10,0,3,0,3,0,,,,,,,,1.6374532468544254,both,2119.0,-1.2579793209593721,6.700708236820413e-05,0,46,['frequency'],0.002182066673412919,0.19347696666955017,['space'],351.00326779999887,351.00326779999887,0.19347696666955017,1.8309302135239756,351.2166539999889,351.00326779999887,[-1.5195926000014879],,,,,,,,qmbami,001,fr,0,2022-04-27_14h49.13.737,Continuous,2022.1.1,None,
10,0,10,0,4,0,4,0,,,,,,,,1.6374532468544254,both,1414.0,-5.0,2.836317049792874e-05,0,47,['frequency'],0.00569326666300185,None,['space'],352.8824603999965,352.8824603999965,0.20445696666138247,1.8419102135158079,353.0928539999877,352.8824603999965,[-1.5431264000071678],,,,,,,,qmbami,001,fr,0,2022-04-27_14h49.13.737,Continuous,2022.1.1,None,
10,0,10,0,5,0,5,0,,,,,,,,1.6374532468544254,both,,,,1,47,['frequency'],0.0015751666796859354,0.19132736668689176,['space'],354.76072510000085,354.76072510000085,0.19132736668689176,1.8287806135413172,354.97298439999577,354.76072510000085,[-1.6292479999829084],,,,,,,,qmbami,001,fr,0,2022-04-27_14h49.13.737,Continuous,2022.1.1,None,
10,0,10,0,6,0,6,0,,,,,,,,1.6374532468544254,both,630.0,-1.7091904413218275,4.202526709072069e-05,0,48,['frequency'],0.005848666682140902,0.2017901666695252,['space'],356.64158860000316,356.64158860000316,0.2017901666695252,1.8392434135239506,356.8536682999984,356.64158860000316,[-1.4458189999859314],,,,,,,,qmbami,001,fr,0,2022-04-27_14h49.13.737,Continuous,2022.1.1,None,
10,0,10,0,7,0,7,0,,,,,,,,1.6374532468544254,both,420.0,-3.6012549900083535,4.9896577052366e-05,0,49,['frequency'],0.001415766659192741,None,['space'],358.5168031999783,358.5168031999783,0.19096626667305827,1.8284195135274837,358.72768319997704,358.5168031999783,[-1.4972077000129502],,,,,,,,qmbami,001,fr,0,2022-04-27_14h49.13.737,Continuous,2022.1.1,None,
10,0,10,0,8,0,8,0,,,,,,,,1.6374532468544254,both,280.0,-1.7166023408310198,0.0001113656285916435,0,50,['frequency'],0.0012376666418276727,0.1948849666514434,['space'],360.3978661999863,360.3978661999863,0.1948849666514434,1.8323382135058688,360.61160740000196,360.3978661999863,[0.07801430000108667],,,,,,,,qmbami,001,fr,0,2022-04-27_14h49.13.737,Continuous,2022.1.1,None,
10,0,10,0,9,0,9,0,,,,,,,,1.6374532468544254,both,187.0,-4.95958079263621,0.00017671399578683786,0,51,['frequency'],0.00372716665151529,None,None,362.2809811999905,362.2809811999905,0.1993610666540917,1.836814313508517,362.4937876999902,362.2809811999905,,,,,,,,,qmbami,001,fr,0,2022-04-27_14h49.13.737,Continuous,2022.1.1,None,
10,0,10,0,10,0,10,0,,,,,,,,1.6374532468544254,both,125.0,-2.954533057320599,0.0005143317702144545,0,52,['frequency'],0.0014103666471783072,None,['space'],364.15657900000224,364.15657900000224,0.19125076665659435,1.8287040135110197,364.36659799999325,364.15657900000224,[-0.7684721999976318],,,,,,,,qmbami,001,fr,0,2022-04-27_14h49.13.737,Continuous,2022.1.1,None,
11,0,11,0,0,0,0,0,,,,,,368.9252477999835,None,2.939362082685143,time,,,,1,38,['frequency'],0.013050066656433046,None,None,369.9590950999991,None,0.21319956664228812,3.1525616493274313,370.1716772999789,None,,366.0361329999869,None,,"[0.5833333333333334, 0.3333333333333333, 0.3333333333333333, 0.3333333333333333, 0.16666666666666666, 0.3333333333333333, 0.16666666666666666, 0.16666666666666666, 0.3333333333333333, 0.3333333333333333, 0.5833333333333334, 0.16666666666666666, 0.5833333333333334, 0.3333333333333333, 0.5833333333333334]",,,,qmbami,001,fr,0,2022-04-27_14h49.13.737,Continuous,2022.1.1,None,
11,0,11,0,1,0,1,0,,,,,,,,2.939362082685143,time,3647.0,-1.7136847364665084,6.382347173552818e-05,0,39,['frequency'],0.006104066647822037,None,None,373.14225229999283,373.14225229999283,0.2035417666484136,3.142903849333557,373.34743929997785,373.14225229999283,,,,,,,,,qmbami,001,fr,0,2022-04-27_14h49.13.737,Continuous,2022.1.1,None,
11,0,11,0,2,0,2,0,,,,,,,,2.939362082685143,time,2298.0,1.641398814912657,9.835317813042813e-05,0,40,['frequency'],0.007333733345149085,None,['space'],376.328655099991,376.328655099991,0.22606323333457112,3.1654253160197143,376.5500865999784,376.328655099991,[-2.812914099980844],,,,,,,,qmbami,001,fr,0,2022-04-27_14h49.13.737,Continuous,2022.1.1,None,
11,0,11,0,3,0,3,0,,,,,,,,2.939362082685143,time,1290.0,-0.7717530217374933,4.896629645878428e-05,0,41,['frequency'],0.0007690666534472257,0.1908833666529972,['space'],379.52398589998484,379.52398589998484,0.1908833666529972,3.1302454493381404,379.73209949999,379.52398589998484,[-2.872917000000598],,,,,,,,qmbami,001,fr,0,2022-04-27_14h49.13.737,Continuous,2022.1.1,None,
11,0,11,0,4,0,4,0,,,,,,,,2.939362082685143,time,2047.0,1.9947659894435374,9.543655458765775e-05,0,42,['frequency'],0.004980966681614518,0.20220226666424423,['space'],382.70169590000296,382.70169590000296,0.20220226666424423,3.1415643493493874,382.9132585999905,382.70169590000296,[-2.6903199999942444],,,,,,,,qmbami,001,fr,0,2022-04-27_14h49.13.737,Continuous,2022.1.1,None,
11,0,11,0,5,0,5,0,,,,,,,,2.939362082685143,time,3249.0,-1.2681046374365126,6.114551475767293e-05,0,43,['frequency'],0.0010173666523769498,0.1945524666516576,['space'],385.88012779998826,385.88012779998826,0.1945524666516576,3.133914549336801,386.0934607999807,385.88012779998826,[-2.748216700012563],,,,,,,,qmbami,001,fr,0,2022-04-27_14h49.13.737,Continuous,2022.1.1,None,
11,0,11,0,6,0,6,0,,,,,,,,2.939362082685143,time,5789.0,-4.872185848217015,7.056462932047558e-05,0,44,['frequency'],0.000688566651660949,0.18903056666022167,['space'],389.0609237999888,389.0609237999888,0.18903056666022167,3.128392649345365,389.26678219999303,389.0609237999888,[-2.873508300021058],,,,,,,,qmbami,001,fr,0,2022-04-27_14h49.13.737,Continuous,2022.1.1,None,
11,0,11,0,7,0,7,0,,,,,,,,2.939362082685143,time,1625.0,1.9426892173414982,7.238661099284229e-05,0,45,['frequency'],0.004727966646896675,None,['space'],392.242476799991,392.242476799991,0.20375336665892974,3.143115449344073,392.46236169998883,392.242476799991,[-2.8222901999833994],,,,,,,,qmbami,001,fr,0,2022-04-27_14h49.13.737,Continuous,2022.1.1,None,
11,0,11,0,8,0,8,0,,,,,,,,2.939362082685143,time,1024.0,-1.838967072470486,3.6459198688527786e-05,0,46,['frequency'],0.004700866702478379,None,['space'],395.4329147999815,395.4329147999815,0.20259116668603383,3.141953249371177,395.6369130999956,395.4329147999815,[-1.837381599994842],,,,,,,,qmbami,001,fr,0,2022-04-27_14h49.13.737,Continuous,2022.1.1,None,
11,0,11,0,9,0,9,0,,,,,,,,2.939362082685143,time,4595.0,-1.0,0.00011129913595123019,0,47,['frequency'],0.0012386666785459965,0.19200396665837616,['space'],398.6084660999768,398.6084660999768,0.19200396665837616,3.1313660493435194,398.8187008999812,398.6084660999768,[-2.6932610999792814],,,,,,,,qmbami,001,fr,0,2022-04-27_14h49.13.737,Continuous,2022.1.1,None,
12,0,12,0,0,0,0,0,,,,,,406.37597530000494,None,2.8551677686492356,none,6423.0,-6.262754985756531,6.502971981108535e-05,0,59,['frequency'],0.012922666675876826,None,None,407.41094599998905,None,0.21070966665865853,3.065877435307894,407.6221790999989,None,,401.7891970999772,None,,"[0.5833333333333334, 0.3333333333333333, 0.5833333333333334, 0.3333333333333333, 0.3333333333333333, 0.16666666666666666, 0.5833333333333334, 0.5833333333333334, 0.5833333333333334, 0.5833333333333334, 0.5833333333333334, 0.16666666666666666, 0.3333333333333333, 0.16666666666666666, 0.3333333333333333]",,,,qmbami,001,fr,0,2022-04-27_14h49.13.737,Continuous,2022.1.1,None,
12,0,12,0,1,0,1,0,,,,,,,,1.9292380572146886,none,1135.0,-4.059934885183786,3.1142381950634635e-05,0,60,['frequency'],0.01038953333045356,None,['space'],410.51840770000126,410.51840770000126,0.2294496333342977,2.1586876905489865,410.74741209999775,410.51840770000126,[-2.058780299994396],,,,,,,,qmbami,001,fr,0,2022-04-27_14h49.13.737,Continuous,2022.1.1,None,
12,0,12,0,2,0,2,0,,,,,,,,1.8559452734321296,none,1274.0,-0.704015389770603,4.9715958505118986e-05,0,61,['frequency'],0.0011080666445195675,0.19687476663966663,['space'],412.7019614999881,412.7019614999881,0.19687476663966663,2.052820040071796,412.9171165000007,412.7019614999881,[-1.570300799998222],,,,,,,,qmbami,001,fr,0,2022-04-27_14h49.13.737,Continuous,2022.1.1,None,
12,0,12,0,3,0,3,0,,,,,,,,2.555424834054023,none,715.0,-5.393161956483793,2.3492560917339484e-05,0,62,['frequency'],0.01634393332642503,None,['space'],414.80566329997964,414.80566329997964,0.23568653332768008,2.791111367381703,415.0373714999878,414.80566329997964,[-1.6419433999981266],,,,,,,,qmbami,001,fr,0,2022-04-27_14h49.13.737,Continuous,2022.1.1,None,
12,0,12,0,4,0,4,0,,,,,,,,1.92667151585977,none,477.0,-4.319050855779045,4.4167543207609474e-05,0,63,['frequency'],0.00890803334186785,None,None,417.6221004999825,417.6221004999825,0.22972833333187737,2.156399849191647,417.8507277999888,417.6221004999825,,,,,,,,,qmbami,001,fr,0,2022-04-27_14h49.13.737,Continuous,2022.1.1,None,
12,0,12,0,5,0,5,0,,,,,,,,1.4096249740549323,none,2861.0,-2.343110374232036,4.8457030350372965e-05,0,64,['frequency'],0.004177866707323119,0.20173026670818217,['space'],419.8081275000004,419.8081275000004,0.20173026670818217,1.6113552407631144,420.0189734000014,419.8081275000004,[-1.3966182000003755],,,,,,,,qmbami,001,fr,0,2022-04-27_14h49.13.737,Continuous,2022.1.1,None,
12,0,12,0,6,0,6,0,,,,,,,,2.0711752975601354,none,,,,1,64,['frequency'],0.0027543666656129062,0.19651656664791517,['space'],421.46115519999876,421.46115519999876,0.19651656664791517,2.2676918642080506,421.6646795999841,421.46115519999876,[-1.0335201999987476],,,,,,,,qmbami,001,fr,0,2022-04-27_14h49.13.737,Continuous,2022.1.1,None,
12,0,12,0,7,0,7,0,,,,,,,,2.62141737164713,none,379.0,-4.698188188492396,4.7746009063485815e-05,0,65,['frequency'],0.0017435666522942483,0.1919323666661512,['space'],423.76843050000025,423.76843050000025,0.1919323666661512,2.8133497383132813,423.97853699998814,423.76843050000025,[-1.0841862999950536],,,,,,,,qmbami,001,fr,0,2022-04-27_14h49.13.737,Continuous,2022.1.1,None,
12,0,12,0,8,0,8,0,,,,,,,,2.575741603943548,none,901.0,-5.51311891620313,2.1859932637644683e-05,0,66,['frequency'],0.0031621666566934437,None,['space'],426.6318137999915,426.6318137999915,0.1986705666349735,2.7744121705785214,426.84290309998323,426.6318137999915,[-0.14076809998368844],,,,,,,,qmbami,001,fr,0,2022-04-27_14h49.13.737,Continuous,2022.1.1,None,
12,0,12,0,9,0,9,0,,,,,,,,1.7664614510421854,none,4287.0,-6.0,5.196684187478833e-05,0,67,['frequency'],0.0022353666136041284,None,None,429.4522494999983,429.4522494999983,0.19842886662809178,1.9648903176702772,429.6654314000043,429.4522494999983,,,,,,,,,qmbami,001,fr,0,2022-04-27_14h49.13.737,Continuous,2022.1.1,None,
13,0,13,0,0,0,0,0,,,,,,438.5888045000029,None,2.5457920784492742,none,1189.0,-5.670029493323693,2.7048863917407504e-05,0,68,['frequency'],0.01279476669151336,None,None,439.61983389998204,None,0.2148069666873198,2.760599045136594,439.83111780000036,None,,431.46605499999714,None,,"[0.5833333333333334, 0.3333333333333333, 0.3333333333333333, 0.5833333333333334, 0.16666666666666666, 0.3333333333333333, 0.5833333333333334, 0.16666666666666666, 0.5833333333333334, 0.3333333333333333, 0.5833333333333334, 0.5833333333333334, 0.16666666666666666, 0.3333333333333333, 0.5833333333333334]",,,,qmbami,001,fr,0,2022-04-27_14h49.13.737,Continuous,2022.1.1,None,
13,0,13,0,1,0,1,0,,,,,,,,2.563248579035447,none,2245.0,1.0870723374965205,9.094095289339977e-05,0,69,['frequency'],0.0037499666505027562,None,None,442.4137698999839,442.4137698999839,0.20355496666161343,2.7668035456970603,442.6226880000031,442.4137698999839,,,,,,,,,qmbami,001,fr,0,2022-04-27_14h49.13.737,Continuous,2022.1.1,None,
13,0,13,0,2,0,2,0,,,,,,,,1.2921997008715176,none,1498.0,-5.36694993755487,2.606565956397691e-05,0,70,['frequency'],0.01666083329473622,None,['space'],445.2196748999995,445.2196748999995,0.2456439333036542,1.5378436341751718,445.45658249998814,445.2196748999995,[-2.263542200002121],,,,,,,,qmbami,001,fr,0,2022-04-27_14h49.13.737,Continuous,2022.1.1,None,
13,0,13,0,3,0,3,0,,,,,,,,1.8825727204255063,none,,,,1,70,['frequency'],0.000583166693104431,0.19207916667801328,None,446.7749571999884,446.7749571999884,0.19207916667801328,2.0746518871035198,446.98601619998226,446.7749571999884,,,,,,,,,qmbami,001,fr,0,2022-04-27_14h49.13.737,Continuous,2022.1.1,None,
13,0,13,0,4,0,4,0,,,,,,,,1.402662153926065,none,944.0,-2.5303771230473373,3.172995993161773e-05,0,71,"['frequency', 'none']",0.0051534666563384235,None,None,448.90203319999273,448.90203319999273,0.20800786666222848,1.6106700205882936,449.11461590000545,448.90203319999273,,,,,,"{'estimation': [[125.0, -1.9967491275727416], [125.08730184607064, -2.0], [133.9716828170366, -2.2924877817319413], [143.5872943746293, -2.70688798622911], [150.47459358881932, -3.0], [153.89305166811442, -3.1386038301060823], [164.93848884661162, -3.4664964399525227], [176.77669529663666, -3.614507429391937], [189.46457081379947, -3.5761222418360927], [203.0630990890585, -3.425635251114855], [217.6376408240306, -3.297508934884336], [233.25824788420132, -3.337754697229518], [249.99999999999937, -3.6425721313532566], [261.0208932472594, -4.0], [267.94336563407256, -4.216072480598469], [287.1745887492579, -4.9370165770934085], [289.03003929530666, -5.0], [307.78610333622805, -5.612530773813499], [329.0745282590945, -6.0], [329.87697769322244, -6.014472294430803], [337.70980364939476, -6.0], [353.55339059327247, -5.971887549681353], [378.9291416275976, -5.429146867723217], [390.7340147935818, -5.0], [406.12619817811606, -4.4640157947819326], [417.28216285524235, -4.0], [435.2752816480607, -3.2877545627006963], [443.0035086599308, -3.0], [466.5164957684015, -2.1723341236394926], [473.4237124652809, -2.0], [499.9999999999975, -1.3766169897089773], [535.8867312681438, -1.0692439943631877], [574.3491774985137, -1.2810616849354388], [615.5722066724546, -1.8998559727654634], [620.8469895013687, -2.0], [659.7539553864432, -2.7212044969029434], [676.380600504766, -3.0], [707.1067811865431, -3.5046698415956072], [753.1605386535407, -4.0], [757.8582832551941, -4.049685169863705], [812.2523963562301, -4.254110313779455], [870.5505632961192, -4.1169617485599845], [888.2734386418517, -4.0], [933.0329915368008, -3.7207578210731316], [999.9999999999926, -3.1848870980061403], [1021.8311696221875, -3.0], [1071.773462536285, -2.5937239984364995], [1148.0474546357261, -2.0], [1148.698354997026, -1.9950161211673412], [1231.1444133449063, -1.378647740556239], [1281.046340375451, -1.0], [1319.5079107728832, -0.7120287515992979], [1413.307337518277, 0.0], [1414.2135623730828, 0.0068193206661048], [1515.7165665103846, 0.7334119795841814], [1560.9340946120294, 1.0], [1624.5047927124563, 1.3636018457484518], [1741.1011265922318, 1.745560939940145], [1866.065983073597, 1.7476623748501026], [1999.9999999999802, 1.2909464482644715], [2045.169454473194, 1.0], [2143.5469250725646, 0.3844408648077633], [2190.511009663495, 0.0], [2297.396709994046, -0.8554330585485264], [2314.3136609524827, -1.0], [2432.635759574355, -2.0], [2462.2888266898062, -2.242186850306025], [2563.419671772144, -3.0], [2639.01582154576, -3.550498001496062], [2720.207826973594, -4.0], [2828.427124746159, -4.58739610118759], [2959.5889506799354, -5.0], [3031.4331330207615, -5.2240961847262515], [3249.0095854249043, -5.420675878641857], [3482.2022531844555, -5.233212236189166], [3608.805877930583, -5.0], [3732.1319661471844, -4.781280820853176], [3999.9999999999504, -4.226190594271376], [4123.444136149844, -4.0], [4287.093850145118, -3.712466628627435], [4594.7934199880865, -3.364719635297128], [4924.577653379601, -3.2454664947885545], [5278.031643091506, -3.3655645629673385], [5656.854249492303, -3.6882883419419956], [5927.4985408249, -4.0], [6062.866266041508, -4.146627239033377], [6498.019170849792, -4.646374400924442], [6851.139359300855, -5.0], [6964.404506368894, -5.108826725088613], [7464.2639322943505, -5.457469189104845], [7999.999999999882, -5.649824530685819]], 'plus_line': [[125.0, -6.346530650542098], [133.9716828170366, -6.309605819799526], [143.5872943746293, -6.591684830029518], [153.89305166811442, -6.965329973855266], [155.1772853687138, -7.0], [164.93848884661162, -7.276361536247346], [176.77669529663666, -7.386574698132794], [189.46457081379947, -7.312587288951161], [203.0630990890585, -7.148244282383021], [217.6376408240306, -7.030593386343687], [233.25824788420132, -7.097920105382403], [249.99999999999937, -7.424387260438465], [267.94336563407256, -7.981502381748381], [268.4202302671753, -8.0], [287.1745887492579, -8.730882690743893], [294.9413279894272, -9.0], [307.78610333622805, -9.4560643911362], [329.87697769322244, -9.913309069424217], [353.55339059327247, -9.927323461273952], [378.929141627598, -9.405637116208549], [389.44739094930287, -9.0], [406.12619817811606, -8.388656619651941], [414.76231096258056, -8.0], [435.2752816480601, -7.09905805956704], [437.6608840776702, -7.0], [462.81940754132444, -6.0], [466.5164957684015, -5.861602870488507], [498.1607359276497, -5.0], [499.9999999999975, -4.95382033780921], [535.8867312681438, -4.595637261600633], [574.3491774985143, -4.791976561820283], [587.323460584235, -5.0], [615.5722066724546, -5.464652578421699], [642.0831330654903, -6.0], [659.7539553864432, -6.3592167911848705], [695.6806272086604, -7.0], [707.1067811865431, -7.206246123502303], [757.8582832551941, -7.782697110431711], [812.2523963562301, -7.960526430784353], [870.5505632961181, -7.7769221794499686], [933.0329915368008, -7.321818136222557], [967.8537543955442, -7.0], [999.9999999999926, -6.733593543402319], [1071.773462536285, -6.1343831003365885], [1089.11065406462, -6.0], [1148.698354997026, -5.579474776751317], [1231.1444133449063, -5.013378945839469], [1233.0576698810569, -5.0], [1319.5079107728832, -4.443491885935794], [1381.7891281029865, -4.0], [1414.2135623730828, -3.783119717032023], [1515.7165665103864, -3.0886470192949798], [1530.227178948403, -3.0], [1624.5047927124563, -2.476212751017309], [1741.1011265922318, -2.0661258074726945], [1866.0659830735945, -2.053657384242015], [1999.9999999999802, -2.540712789202435], [2068.8484549998484, -3.0], [2143.5469250725646, -3.4922145357751275], [2202.1427290145903, -4.0], [2297.396709994046, -4.78584120852789], [2321.1176264627848, -5.0], [2434.3704368365584, -6.0], [2462.2888266898035, -6.232913054503205], [2558.289396761675, -7.0], [2639.01582154576, -7.6038335484599875], [2705.721444031894, -8.0], [2828.427124746159, -8.708536680472474], [2911.2480521117172, -9.0], [3031.4331330207656, -9.431054269254313], [3249.0095854249043, -9.696169966880102], [3482.2022531844555, -9.53272928623582], [3732.1319661471844, -9.024406528316982], [3741.4951389356656, -9.0], [3999.9999999999504, -8.397490705537704], [4189.656027218323, -8.0], [4287.093850145118, -7.815735698412117], [4594.793419988076, -7.474143348107324], [4924.577653379601, -7.403926657030269], [5278.031643091506, -7.564358233347292], [5656.854249492303, -7.857930316007433], [5814.222825263964, -8.0], [6062.866266041516, -8.228851789686935], [6498.019170849792, -8.629327789126513], [6896.33106463484, -9.0], [6964.404506368894, -9.066251411854036], [7464.2639322943505, -9.60596685329612], [7820.107798771229, -10.0], [7999.999999999892, -10.223490805215452]], 'minus_line': [[125.0, 2.446270612293584], [130.90462665417834, 2.0], [133.9716828170366, 1.8020417547608991], [143.5872943746293, 1.2229662997320985], [147.76797892167255, 1.0], [153.89305166811442, 0.7122483036265369], [164.93848884661162, 0.32476471106267635], [176.77669529663666, 0.1145411438055226], [189.46457081379947, 0.13045808153748306], [203.0630990890585, 0.3096244997677824], [217.6376408240306, 0.4887852490284089], [233.25824788420132, 0.4867036653685377], [249.99999999999937, 0.17105793579178263], [254.6512364119712, 0.0], [267.94336563407256, -0.4383139909700218], [281.3671230604101, -1.0], [287.1745887492579, -1.2232101733198677], [307.78610333622805, -1.937348898363362], [310.95398785072996, -2.0], [329.87697769322244, -2.3292351990700135], [353.55339059327247, -2.2659031197833994], [365.62319047856937, -2.0], [378.929141627598, -1.699530802677581], [398.68774913022014, -1.0], [406.12619817811606, -0.7428540922908836], [424.6684645351321, 0.0], [435.2752816480601, 0.4021952334450468], [452.45309654815316, 1.0], [466.5164957684015, 1.4665670159096396], [490.7271145895287, 2.0], [499.9999999999975, 2.2042210177929444], [535.8867312681438, 2.4783647720112283], [574.3491774985143, 2.250485070722581], [590.5497260045267, 2.0], [615.5722066724546, 1.6475860578959514], [651.4195748770527, 1.0], [659.7539553864432, 0.8571817846060068], [707.1067811865431, 0.11685173221751888], [717.7055099824994, 0.0], [757.8582832551941, -0.3996368417503753], [812.2523963562301, -0.6122808793461114], [870.5505632961181, -0.511598956852729], [933.0329915368008, -0.17036364304989762], [955.4751071823487, 0.0], [999.9999999999926, 0.3464411953120283], [1071.773462536285, 0.9212168446515909], [1081.3355667806404, 1.0], [1148.6983549970273, 1.5646007180505999], [1202.531771908232, 2.0], [1231.1444133449063, 2.2383452252699634], [1319.5079107728832, 2.9674149409209982], [1323.3678638909112, 3.0], [1414.2135623730828, 3.7731002622131324], [1443.3959556238642, 4.0], [1515.7165665103846, 4.567811330966817], [1587.5156314329186, 5.0], [1624.5047927124563, 5.228674402557202], [1741.1011265922318, 5.627419575856502], [1866.065983073597, 5.631880072648161], [1999.9999999999802, 5.174317859848364], [2026.9372241439023, 5.0], [2143.5469250725646, 4.284342788430021], [2178.7640055162424, 4.0], [2297.396709994046, 3.0447207763410646], [2302.726355683588, 3.0], [2423.2777395254293, 2.0], [2462.2888266898062, 1.6783355057846947], [2555.3777777471773, 1.0], [2639.01582154576, 0.38996725369314555], [2712.782547863591, 0.0], [2828.427124746159, -0.5956226294844867], [2974.573487493341, -1.0], [3031.433133020758, -1.1480461500669537], [3249.0095854249043, -1.2360117196201912], [3467.2284062095673, -1.0], [3482.2022531844555, -0.9824159875652166], [3732.1319661471844, -0.5021371552179178], [3992.126574242465, 0.0], [3999.9999999999504, 0.015706128219963422], [4287.093850145118, 0.5270377962136927], [4594.793419988081, 0.8977019434437049], [4785.184673557427, 1.0], [4924.577653379601, 1.0814854589681009], [5247.943378770227, 1.0], [5278.031643091506, 0.9933945091064604], [5656.854249492303, 0.6419636667650788], [6062.866266041508, 0.053323473974069446], [6095.536883799483, 0.0], [6498.019170849792, -0.5796391319035001], [6857.141302807206, -1.0], [6964.404506368894, -1.1122871153587903], [7464.2639322943505, -1.3239274642893255], [7999.999999999882, -1.1454335906248267]]}",,,qmbami,001,fr,0,2022-04-27_14h49.13.737,Continuous,2022.1.1,None,
13,0,13,0,5,0,5,0,,,,,,,,2.139848861366094,none,8000.0,-6.0,9.098504293049921e-05,0,72,"['frequency', 'none']",0.012330633326200768,None,['space'],450.55398110000533,450.55398110000533,0.2308540333469864,2.3707028947130806,450.7830514999805,450.55398110000533,[-1.2627399000048172],,,,,,,,qmbami,001,fr,0,2022-04-27_14h49.13.737,Continuous,2022.1.1,None,
13,0,13,0,6,0,6,0,,,,,,,,2.6165292103548,none,5339.0,-5.944819612728067,7.073695334716739e-05,0,73,"['frequency', 'none']",0.01496023332583718,None,['space'],452.94991870000376,452.94991870000376,0.23207043332513422,2.8485996436799343,453.17605899999035,452.94991870000376,[-1.9470446999766864],,,,,,,,qmbami,001,fr,0,2022-04-27_14h49.13.737,Continuous,2022.1.1,None,
13,0,13,0,7,0,7,0,,,,,,,,1.9823160643728477,none,3175.0,-3.5996338722952306,4.589242340829656e-05,0,74,"['frequency', 'none']",0.016151933290529996,None,['space'],455.8198333999899,455.8198333999899,0.20645573330693878,2.1887717976797862,456.0308429999859,455.8198333999899,[-2.51256510001258],,,,,,,,qmbami,001,fr,0,2022-04-27_14h49.13.737,Continuous,2022.1.1,None,
13,0,13,0,8,0,8,0,,,,,,,,2.0799053013574396,none,2520.0,-1.2809679821875537,7.304520157477681e-05,0,75,"['frequency', 'none']",0.016403833287768066,None,['space'],458.04954670000006,458.04954670000006,0.24003983329748735,2.319945134654927,458.2815490999783,458.04954670000006,[-1.8618929000222124],,,,,,,,qmbami,001,fr,0,2022-04-27_14h49.13.737,Continuous,2022.1.1,None,
14,0,14,0,0,0,0,0,,,,,,475.237318200001,None,1.9809091618227057,time,2000.0,0.3480669788152375,7.787056992890759e-05,0,48,"['frequency', 'none']",0.013091066648485139,None,None,476.27945969998837,None,0.21824186664889567,2.1991510284716016,476.491102400003,None,,460.3865538999962,None,,"[0.16666666666666666, 0.5833333333333334, 0.16666666666666666, 0.16666666666666666, 0.5833333333333334, 0.3333333333333333, 0.16666666666666666, 0.16666666666666666, 0.5833333333333334, 0.5833333333333334, 0.3333333333333333, 0.3333333333333333, 0.16666666666666666, 0.16666666666666666, 0.5833333333333334]",,,,qmbami,001,fr,0,2022-04-27_14h49.13.737,Continuous,2022.1.1,None,
14,0,14,0,1,0,1,0,,,,,,,,1.9809091618227057,time,,,,1,48,"['frequency', 'none']",0.01288003331865184,None,"['space', 'space']",478.51629469997715,478.51629469997715,0.2239491333020851,2.204858295124791,478.73733909998555,478.51629469997715,"[-1.7689906999876257, -0.009494700003415346]",,,,,,,,qmbami,001,fr,0,2022-04-27_14h49.13.737,Continuous,2022.1.1,None,
14,0,14,0,2,0,2,0,,,,,,,,1.9809091618227057,time,1782.0,-4.29319699929383,3.963166889034099e-05,0,49,"['frequency', 'none']",0.0005780666542705148,None,None,480.74664389999816,480.74664389999816,0.19238026667153463,2.1732894284942406,480.96113189999596,480.74664389999816,,,,,,,,,qmbami,001,fr,0,2022-04-27_14h49.13.737,Continuous,2022.1.1,None,
14,0,14,0,3,0,3,0,,,,,,,,1.9809091618227057,time,8000.0,-5.0,0.00010208689723347648,0,50,"['frequency', 'none']",0.016171733324881643,None,"['space', 'space']",482.97670179998386,482.97670179998386,0.2413149333151523,2.2222240951378582,483.2119449999882,482.97670179998386,"[-1.6372858999820892, 0.23491100000683218]",,,,,,,,qmbami,001,fr,0,2022-04-27_14h49.13.737,Continuous,2022.1.1,None,
14,0,14,0,4,0,4,0,,,,,,,,1.9809091618227057,time,1189.0,-4.980888687201321,2.928235957463489e-05,0,51,"['frequency', 'none']",0.016152333351783454,None,None,485.2183116999804,485.2183116999804,0.2360526333504822,2.216961795173188,485.44735420000507,485.2183116999804,,,,,,,,,qmbami,001,fr,0,2022-04-27_14h49.13.737,Continuous,2022.1.1,None,
14,0,14,0,5,0,5,0,,,,,,,,1.9809091618227057,time,4757.0,-5.476548985439787,7.240944551286007e-05,0,52,"['frequency', 'none']",0.015531233337242156,None,['space'],487.455143899977,487.455143899977,0.23216443331330083,2.2130735951360068,487.68044179998105,487.455143899977,[-1.5869864000123926],,,,,,,,qmbami,001,fr,0,2022-04-27_14h49.13.737,Continuous,2022.1.1,None,
14,0,14,0,6,0,6,0,,,,,,,,1.9809091618227057,time,4238.0,-5.01152131216724,5.633705188707719e-05,0,53,"['frequency', 'none']",0.015900033322395757,None,['space'],489.68897429999197,489.68897429999197,0.23446893331129104,2.215378095133997,489.9156292999978,489.68897429999197,[-1.9012208000058308],,,,,,,,qmbami,001,fr,0,2022-04-27_14h49.13.737,Continuous,2022.1.1,None,
14,0,14,0,7,0,7,0,,,,,,,,1.9809091618227057,time,2245.0,1.2843330760291125,9.302989642279958e-05,0,54,"['frequency', 'none']",0.015994833316653967,None,['space'],491.9236404999974,491.9236404999974,0.2352570333168842,2.21616619513959,492.1518881999946,491.9236404999974,[-1.9281579999951646],,,,,,,,qmbami,001,fr,0,2022-04-27_14h49.13.737,Continuous,2022.1.1,None,
14,0,14,0,8,0,8,0,,,,,,,,1.9809091618227057,time,5339.0,-5.824863663397178,7.17206386573913e-05,0,55,"['frequency', 'none']",0.01596193332807161,None,['space'],494.1601003999822,494.1601003999822,0.23386543334345333,2.2147745951661593,494.3869531999808,494.1601003999822,[-1.9727591999981087],,,,,,,,qmbami,001,fr,0,2022-04-27_14h49.13.737,Continuous,2022.1.1,None,
15,0,15,0,0,0,0,0,,,,,,499.024486099981,None,1.6394052912151593,time,259.0,1.4229239180898174,0.00018606317772882193,0,56,"['frequency', 'none']",0.012918566644657403,None,None,500.0486268999812,None,0.21232196665368974,1.851727257868849,500.2589164999954,None,,496.39310419998947,None,,"[0.5833333333333334, 0.5833333333333334, 0.16666666666666666, 0.3333333333333333, 0.3333333333333333, 0.16666666666666666, 0.5833333333333334, 0.16666666666666666, 0.3333333333333333, 0.3333333333333333, 0.16666666666666666, 0.16666666666666666, 0.5833333333333334, 0.16666666666666666, 0.5833333333333334]",,,,qmbami,001,fr,0,2022-04-27_14h49.13.737,Continuous,2022.1.1,None,
15,0,15,0,1,0,1,0,,,,,,,,1.6394052912151593,time,164.0,1.516206271283508,0.0004721848051969758,0,57,"['frequency', 'none']",0.015514133323449641,None,['space'],501.93397469999036,501.93397469999036,0.24589803331764415,1.8853033245328035,502.17183839998324,501.93397469999036,[-1.3301381999917794],,,,,,,,qmbami,001,fr,0,2022-04-27_14h49.13.737,Continuous,2022.1.1,None,
15,0,15,0,2,0,2,0,,,,,,,,1.6394052912151593,time,1465.0,2.6068156382048664,6.638256898087795e-05,0,58,"['frequency', 'none']",0.015563033346552402,None,['space'],503.83991759998025,503.83991759998025,0.23581093334360048,1.8752162245587598,504.0685147999902,503.83991759998025,[-1.54099429998314],,,,,,,,qmbami,001,fr,0,2022-04-27_14h49.13.737,Continuous,2022.1.1,None,
15,0,15,0,3,0,3,0,,,,,,,,1.6394052912151593,time,489.0,1.9302469492086587,8.992607343426444e-05,0,59,"['frequency', 'none']",0.014752433315152302,None,None,505.734049199993,505.734049199993,0.2321468333248049,1.8715521245399642,505.9635220999771,505.734049199993,,,,,,,,,qmbami,001,fr,0,2022-04-27_14h49.13.737,Continuous,2022.1.1,None,
15,0,15,0,4,0,4,0,,,,,,,,1.6394052912151593,time,616.0,3.0,7.535697788387289e-05,0,60,"['frequency', 'none']",0.0020293666457291692,None,['space'],507.6328577999957,507.6328577999957,0.20145096664782614,1.8408562578629855,507.84017869998934,507.6328577999957,[-1.285214100003941],,,,,,,,qmbami,001,fr,0,2022-04-27_14h49.13.737,Continuous,2022.1.1,None,
15,0,15,0,5,0,5,0,,,,,,,,1.6394052912151593,time,206.0,-0.07169810438665447,0.00025160162836363056,0,61,"['frequency', 'none']",0.0022366666817106307,None,['space'],509.51909029998933,509.51909029998933,0.20095216666231863,1.840357457877478,509.72682499999064,509.51909029998933,[-1.443171799997799],,,,,,,,qmbami,001,fr,0,2022-04-27_14h49.13.737,Continuous,2022.1.1,None,
15,0,15,0,6,0,6,0,,,,,,,,1.6394052912151593,time,291.0,0.7170953662468464,0.0001347227272319641,0,62,"['frequency', 'none']",0.0022025666548870504,None,['space'],511.4048750999791,511.4048750999791,0.20046046664356254,1.8398657578587219,511.61220169998705,511.4048750999791,[-1.4735679999866989],,,,,,,,qmbami,001,fr,0,2022-04-27_14h49.13.737,Continuous,2022.1.1,None,
15,0,15,0,7,0,7,0,,,,,,,,1.6394052912151593,time,146.0,2.376126016066227,0.0007043316331445857,0,63,"['frequency', 'none']",0.015758033317979425,None,['space'],513.2909363999788,513.2909363999788,0.23666153333033435,1.8760668245454937,513.5199906000053,513.2909363999788,[-1.4706474000122398],,,,,,,,qmbami,001,fr,0,2022-04-27_14h49.13.737,Continuous,2022.1.1,None,
15,0,15,0,8,0,8,0,,,,,,,,1.6394052912151593,time,1644.0,3.0,8.296860960480843e-05,0,64,"['frequency', 'none']",0.011027333326637745,None,['space'],515.1897520999773,515.1897520999773,0.23139453332987614,1.8707998245450355,515.4205284999916,515.1897520999773,[-1.5308356000168715],,,,,,,,qmbami,001,fr,0,2022-04-27_14h49.13.737,Continuous,2022.1.1,None,
15,0,15,0,9,0,9,0,,,,,,,,1.6394052912151593,time,,,,1,64,"['frequency', 'none']",0.012052233330905437,None,None,517.0904606999829,517.0904606999829,0.22976243332959712,1.8691677245447564,517.3184939999774,517.0904606999829,,,,,,,,,qmbami,001,fr,0,2022-04-27_14h49.13.737,Continuous,2022.1.1,None,
15,0,15,0,10,0,10,0,,,,,,,,1.6394052912151593,time,776.0,-0.2613842426004487,3.828957157092392e-05,0,65,"['frequency', 'none']",0.00011546668247319758,0.20831536667537875,None,519.0303848999902,519.0303848999902,0.20831536667537875,1.847720657890538,519.2118966999988,519.0303848999902,,,,,,,,,qmbami,001,fr,0,2022-04-27_14h49.13.737,Continuous,2022.1.1,None,
15,0,15,0,11,0,11,0,,,,,,,,1.6394052912151593,time,978.0,0.10965061797793663,4.397886227965154e-05,0,66,"['frequency', 'none']",0.01569073330028914,None,None,520.8819579999836,520.8819579999836,0.23600973331485875,1.875415024530018,521.1115935999842,520.8819579999836,,,,,,,,,qmbami,001,fr,0,2022-04-27_14h49.13.737,Continuous,2022.1.1,None,
15,0,15,0,12,0,12,0,,,,,,,,1.6394052912151593,time,2463.0,1.156565431909509,9.719219821651594e-05,0,67,"['frequency', 'none']",0.010492733330465853,None,['space'],522.7813967999828,522.7813967999828,0.22883793333312497,1.8682432245482843,523.0128328999854,522.7813967999828,[-1.4901428000011947],,,,,,,,qmbami,001,fr,0,2022-04-27_14h49.13.737,Continuous,2022.1.1,None,
15,0,15,0,13,0,13,0,,,,,,,,1.6394052912151593,time,436.0,2.979637116357929,0.00010529045861864575,0,68,"['frequency', 'none']",0.01510553335538134,None,['space'],524.6772302000027,524.6772302000027,0.23707553333952092,1.8764808245546802,524.9077942000004,524.6772302000027,[-1.4973582999955397],,,,,,,,qmbami,001,fr,0,2022-04-27_14h49.13.737,Continuous,2022.1.1,None,
16,0,16,0,0,0,0,0,,,,,,531.0941340999852,None,2.201419045183398,time,3776.0,-4.501686690508925,4.7648531861221225e-05,0,69,"['frequency', 'none', 'time']",0.012812866654712707,None,None,532.1096280000056,None,0.21773966666660272,2.4191587118500006,532.3254252999905,None,,526.5781044999894,None,,"[0.16666666666666666, 0.16666666666666666, 0.16666666666666666, 0.16666666666666666, 0.16666666666666666, 0.16666666666666666, 0.16666666666666666, 0.5833333333333334, 0.16666666666666666, 0.5833333333333334, 0.3333333333333333, 0.16666666666666666, 0.3333333333333333, 0.16666666666666666, 0.3333333333333333]",,"{'estimation': [[125.0, -3.4502440163971855], [133.9716828170366, -3.5064598075904705], [143.5872943746293, -3.547609471785628], [153.89305166811442, -3.5165124008811874], [164.93848884661162, -3.3538935755359214], [176.77669529663666, -3.016260882815714], [177.16582917539077, -3.0], [189.46457081379947, -2.5236595422191037], [201.20332719783661, -2.0], [203.0630990890585, -1.920729287916547], [217.6376408240306, -1.3191081140370193], [227.14230239695655, -1.0], [233.25824788420132, -0.8078502355677488], [249.99999999999937, -0.4886824550136946], [267.94336563407256, -0.3779889852118843], [287.1745887492579, -0.43276046629456877], [307.78610333622805, -0.555244296198059], [329.87697769322244, -0.6240644618838058], [353.55339059327247, -0.533482931298724], [378.929141627598, -0.22715227924222878], [390.5061451240439, 0.0], [406.12619817811606, 0.29218149751342104], [435.2752816480601, 0.9344333176014404], [438.1816669924589, 1.0], [466.5164957684015, 1.6047446507982597], [488.8142670202265, 2.0], [499.9999999999975, 2.19538979186034], [535.8867312681438, 2.6126187357029003], [574.3491774985143, 2.827880607924948], [615.5722066724546, 2.8401098743364632], [659.7539553864432, 2.6735388837099547], [707.1067811865431, 2.3621241973567457], [748.5464398817762, 2.0], [757.8582832551941, 1.922047789846462], [812.2523963562301, 1.3913963221927514], [847.9245706195459, 1.0], [870.5505632961181, 0.7696922082190842], [933.0329915368008, 0.10421888395049794], [942.5967919857343, 0.0], [999.9999999999926, -0.5738737584520492], [1048.1781330789959, -1.0], [1071.773462536285, -1.200920836227153], [1148.698354997026, -1.6865638087409023], [1231.1444133449063, -1.9823989924367216], [1257.4183140476282, -2.0], [1319.5079107728816, -2.0413547896988073], [1340.3677750357824, -2.0], [1414.2135623730828, -1.859733749521994], [1515.7165665103864, -1.4994015005856536], [1624.5047927124563, -1.0367099245294464], [1633.4015421003312, -1.0], [1741.1011265922318, -0.5866040950228465], [1866.065983073597, -0.2533467926428596], [1999.9999999999827, -0.09521418896708592], [2143.5469250725646, -0.14229181090585652], [2297.396709994046, -0.3692947467035824], [2462.2888266898062, -0.7231439105883984], [2573.6795528997895, -1.0], [2639.01582154576, -1.1692335922457098], [2828.427124746159, -1.6607274743647227], [2953.255449138163, -2.0], [3031.4331330207615, -2.213275415573303], [3249.0095854249043, -2.8361217677525006], [3298.9775803497732, -3.0], [3482.2022531844555, -3.5711744022707164], [3604.956216609785, -4.0], [3732.1319661471844, -4.420048127087254], [3894.8042153845554, -5.0], [3999.9999999999554, -5.353336746075002], [4191.600955940409, -6.000000000000001], [4287.093850145118, -6.304649445036523], [4529.0601327832555, -7.0], [4594.793419988081, -7.181126574936657], [4924.577653379601, -7.884722437196231], [5008.500629638628, -8.0], [5278.031643091506, -8.361429058374076], [5656.854249492303, -8.561435194850628], [6062.866266041508, -8.509353356761318], [6498.019170849792, -8.250808197369164], [6781.1925272412445, -8.0], [6964.404506368894, -7.842343218830091], [7464.2639322943505, -7.363207538956983], [7841.428588415245, -7.0], [7999.999999999882, -6.845487984737682]], 'plus_line': [[125.0, -6.159724510728495], [133.9716828170366, -6.095682043491512], [143.5872943746293, -6.146985897913868], [153.89305166811442, -6.162335304494063], [164.93848884661162, -6.013915668156325], [165.36705159482347, -6.0], [176.77669529663666, -5.693703684012005], [189.46457081379947, -5.154184906199953], [192.3359141168566, -5.0], [203.0630990890585, -4.502146639502618], [213.0719117269449, -4.0], [217.6376408240306, -3.7992483509597914], [233.25824788420132, -3.2000878745197814], [240.2864503013069, -3.0], [249.99999999999937, -2.7754317057240394], [267.94336563407256, -2.6024073096965386], [287.1745887492579, -2.641269026888759], [307.78610333622805, -2.80057182455514], [329.87697769322244, -2.936352842346931], [353.55339059327247, -2.910182975675496], [378.929141627598, -2.639281136126163], [406.12619817811606, -2.0915134868273224], [409.6772692684101, -2.0], [435.2752816480601, -1.4260125203830567], [453.4646879497476, -1.0], [466.5164957684015, -0.7261483668263609], [499.9999999999975, -0.14965133227486985], [512.5908105787603, 0.0], [535.8867312681438, 0.23662522606886183], [574.3491774985143, 0.40622618519416986], [615.5722066724546, 0.3891310201502739], [659.7539553864432, 0.2139558326426504], [693.435012937044, 0.0], [707.1067811865431, -0.09607725740915435], [757.8582832551941, -0.515501903549116], [812.2523963562301, -0.9656899578547586], [815.8456532982398, -1.0], [870.5505632961181, -1.5186288658183447], [923.7271561167493, -2.0], [933.0329915368008, -2.08794930577611], [999.9999999999926, -2.721455111596895], [1032.903564367457, -3.0], [1071.773462536285, -3.348172863969886], [1148.698354997026, -3.8539593529397833], [1185.5826746030114, -4.0], [1231.1444133449063, -4.2080154503440905], [1319.5079107728832, -4.320091872410903], [1414.2135623730828, -4.176869519233055], [1462.9175412657871, -4.0], [1515.7165665103846, -3.8386119863310255], [1624.5047927124563, -3.4033369260035222], [1716.6939969029643, -3.0], [1741.1011265922318, -2.9077949364796494], [1866.065983073597, -2.538961148896231], [1999.9999999999802, -2.328878115317094], [2143.5469250725646, -2.366283228523648], [2297.396709994046, -2.651681309760786], [2422.575205807863, -3.0], [2462.2888266898062, -3.127993865630831], [2639.01582154576, -3.7228679442276347], [2727.3255247666575, -4.0], [2828.427124746159, -4.345476836644918], [3031.4331330207615, -4.942962241160573], [3050.693967933635, -5.0], [3249.0095854249043, -5.598833914471237], [3383.7071328496063, -6.0], [3482.2022531844555, -6.297027237064812], [3709.3723912808873, -7.0], [3732.1319661471844, -7.070359928889017], [3999.9999999999504, -7.93720669643682], [4019.1757479824573, -8.0], [4287.093850145118, -8.844497877624654], [4342.1291966572935, -9.0], [4594.793419988081, -9.701399554397513], [4735.543902875968, -10.0], [4924.577653379601, -10.412526558369132], [5278.031643091506, -10.88293172616593], [5475.203502481174, -11.0], [5656.854249492297, -11.12370725242338], [6062.866266041508, -11.106242349433519], [6238.2038488644275, -11.0], [6498.019170849792, -10.869433204284551], [6964.404506368894, -10.496424987932055], [7464.263932294341, -10.02725983173189], [7498.859667364468, -10.0], [7999.999999999872, -9.651226654275447]], 'minus_line': [[124.99999999999991, -0.9025770399778997], [129.14802013688217, -1.0], [133.97168281703668, -1.08990616548587], [143.5872943746293, -1.138328548499456], [153.89305166811442, -1.0769291642342136], [158.47200390309257, -1.0], [164.93848884661162, -0.8783565691154049], [176.77669529663666, -0.5288291008657356], [189.46457081379947, -0.06523706297941417], [190.97887758123838, 0.0], [203.0630990890585, 0.529484962792961], [215.60145061192515, 1.0], [217.6376408240306, 1.0813020011761163], [233.25824788420132, 1.5435811972424904], [249.99999999999937, 1.7828408920714496], [267.94336563407256, 1.8309345580939067], [287.1745887492579, 1.7590084675822562], [307.78610333622805, 1.6684096445840484], [329.87697769322244, 1.6574139587707053], [353.55339059327247, 1.7943661909185582], [369.9797878735154, 2.0], [378.929141627598, 2.125997531467186], [406.12619817811606, 2.6403533424779146], [423.0155718844915, 3.0], [435.2752816480601, 3.2732353701945147], [466.5164957684015, 3.930806701695341], [470.25041679481217, 4.0], [499.9999999999975, 4.576200231782665], [533.5055643501246, 5.0], [535.8867312681438, 5.034124359651403], [574.3491774985143, 5.330016435110739], [615.5722066724546, 5.388238253870712], [659.7539553864432, 5.2437391203289305], [693.9181842709252, 5.0], [707.1067811865431, 4.919962814369189], [757.8582832551941, 4.4807561690285365], [798.973849562343, 4.0], [812.2523963562301, 3.863933247147808], [870.5505632961181, 3.1549089202500036], [881.8109658778152, 3.0], [933.0329915368008, 2.3895741476113006], [964.8090841328025, 2.0], [999.9999999999926, 1.6229042027701126], [1064.2740269088995, 1.0], [1071.773462536285, 0.9351784649650002], [1148.698354997026, 0.4601657265073601], [1231.1444133449063, 0.16678934793919387], [1319.5079107728832, 0.12948848313373784], [1414.2135623730828, 0.3516290181707187], [1515.7165665103846, 0.7386356200309989], [1576.7331019369253, 1.0], [1624.5047927124563, 1.2228571790092215], [1741.1011265922298, 1.6580725667164846], [1866.065983073597, 1.9307793577450307], [1961.6161997325535, 2.0], [1999.9999999999802, 2.031816094126961], [2059.6550718821604, 2.0], [2143.5469250725646, 1.9649234323840636], [2297.396709994046, 1.8013641043397368], [2462.2888266898062, 1.5728424006669295], [2639.01582154576, 1.2767497915006438], [2773.3138834118877, 1.0], [2828.427124746159, 0.8958871667335776], [3031.4331330207615, 0.44584617366036705], [3184.9833001327015, 0.0], [3249.0095854249043, -0.17094768561713955], [3482.2022531844596, -0.9363956804499804], [3498.513354565008, -1.0], [3732.1319661471844, -1.8399617343003452], [3772.1953049907447, -2.0], [3999.9999999999504, -2.8529229765177373], [4038.9595274673807, -3.0], [4287.093850145118, -3.880503717110459], [4324.168466187171, -4.0], [4594.793419988081, -4.8049108276040275], [4676.750207757682, -5.0], [4924.577653379601, -5.528440207414681], [5271.260149046662, -6.0], [5278.031643091506, -6.008348803709104], [5656.854249492303, -6.156425394277113], [6062.866266041508, -6.0506471040451375], [6135.402111594571, -6.0], [6498.019170849792, -5.720100410452325], [6964.404506368902, -5.284013170849958], [7238.364514071865, -5.0], [7464.2639322943505, -4.747536750203007], [7999.999999999882, -4.125252393553046]]}",,qmbami,001,fr,0,2022-04-27_14h49.13.737,Continuous,2022.1.1,None,
16,0,16,0,1,0,1,0,,,,,,,,2.201419045183398,time,2670.0,-4.190054976611448,4.6501996114499046e-05,0,70,"['frequency', 'none', 'time']",0.013883333303965628,None,None,534.5528296999983,534.5528296999983,0.204105933313258,2.405524978496656,534.7631536999834,534.5528296999983,,,,,,,,,qmbami,001,fr,0,2022-04-27_14h49.13.737,Continuous,2022.1.1,None,
16,0,16,0,2,0,2,0,,,,,,,,2.201419045183398,time,7127.0,-6.900078477253856,7.007152301363929e-05,0,71,"['frequency', 'none', 'time']",0.014197633310686797,None,['space'],537.0011991999927,537.0011991999927,0.231227433308959,2.432646478492357,537.2332111999858,537.0011991999927,[-1.7896679999830667],,,,,,,,qmbami,001,fr,0,2022-04-27_14h49.13.737,Continuous,2022.1.1,None,
16,0,16,0,3,0,3,0,,,,,,,,2.201419045183398,time,3364.0,-5.084140290342921,4.053030965294298e-05,0,72,"['frequency', 'none', 'time']",0.014088533323956653,None,['space'],539.4613715999876,539.4613715999876,0.20859023332013749,2.4100092785035354,539.6774332999776,539.4613715999876,[-2.2174923999991734],,,,,,,,qmbami,001,fr,0,2022-04-27_14h49.13.737,Continuous,2022.1.1,None,
16,0,16,0,4,0,4,0,,,,,,,,2.201419045183398,time,8000.0,-7.0,8.109050486794653e-05,0,73,"['frequency', 'none', 'time']",0.011381633317796513,None,None,541.9165068999864,541.9165068999864,0.22951773332897574,2.4309367785123737,542.1450421999907,541.9165068999864,,,,,,,,,qmbami,001,fr,0,2022-04-27_14h49.13.737,Continuous,2022.1.1,None,
16,0,16,0,5,0,5,0,,,,,,,,2.201419045183398,time,,,,1,73,"['frequency', 'none', 'time']",0.014069233293412253,None,['space'],544.3747588999977,544.3747588999977,0.2340115332917776,2.4354305784751755,544.6073370999948,544.3747588999977,[-1.9792466000071727],,,,,,,,qmbami,001,fr,0,2022-04-27_14h49.13.737,Continuous,2022.1.1,None,
16,0,16,0,6,0,6,0,,,,,,,,2.201419045183398,time,2997.0,-4.37961835728523,3.322487856938352e-05,0,74,"['frequency', 'none', 'time']",0.015572333300951868,None,None,546.8329684000055,546.8329684000055,0.21196843331563286,2.413387478499031,547.0497706999886,546.8329684000055,,,,,,,,,qmbami,001,fr,0,2022-04-27_14h49.13.737,Continuous,2022.1.1,None,
16,0,16,0,7,0,7,0,,,,,,,,2.201419045183398,time,2379.0,-2.7889951213345867,6.035904493334763e-05,0,75,"['frequency', 'none', 'time']",0.014324233343359083,None,None,549.2821345999837,549.2821345999837,0.23437233333243057,2.4357913785158285,549.5113520000014,549.2821345999837,,,,,,,,,qmbami,001,fr,0,2022-04-27_14h49.13.737,Continuous,2022.1.1,None,
