sweeps.thisRepN,sweeps.thisTrialN,sweeps.thisN,sweeps.thisIndex,trials.thisRepN,trials.thisTrialN,trials.thisN,trials.thisIndex,instructions.started,instructions.stopped,blank_text.started,blank_text.stopped,Intervals,text.started,text.stopped,Delay,Prediction,Frequency,Volume,Psychopy_level,isCatchTrial,len(y),finished_audiograms,probe.started,probe.stopped,feedback.keys,feedback.started,feedback.stopped,ISI.started,ISI.stopped,text_2.started,text_2.stopped,feedback.rt,break_txt.started,break_txt.stopped,,participant,session,language (english or french),Resume previous experiment,date,expName,psychopyVersion,frameRate,
0,0,0,0,0,0,0,0,17.617522099986672,None,46.2915102999832,None,"[0.3333333333333333, 0.16666666666666666, 0.5833333333333334, 0.5833333333333334, 0.3333333333333333, 0.16666666666666666, 0.3333333333333333, 0.3333333333333333, 0.16666666666666666, 0.5833333333333334, 0.5833333333333334, 0.3333333333333333, 0.5833333333333334, 0.3333333333333333, 0.5833333333333334]",48.30015769999591,None,1.2689103038108334,time,1000.0,-1.9554450316517855,3.517205574042524e-05,0,26,[],0.012406066642142832,None,None,49.327233099989826,None,0.22861916664987803,1.4975294704607114,49.54382799999439,None,,,,,qmbami,001,fr,0,2022-04-27_14h42.41.817,Continuous,2022.1.1,36.41701708811619,
0,0,0,0,1,0,1,0,,,,,,,,1.2689103038108334,time,794.0,-1.973495478541642,3.078735159773041e-05,0,27,[],0.012138566671637818,None,None,50.807437999988906,50.807437999988906,0.21115766669390723,1.4800679705047406,51.01486530000693,50.807437999988906,,,,,qmbami,001,fr,0,2022-04-27_14h42.41.817,Continuous,2022.1.1,36.41701708811619,
0,0,0,0,2,0,2,0,,,,,,,,1.2689103038108334,time,198.0,-1.8885614098838572,0.00021943139022438738,0,28,[],0.012245966703630984,None,None,52.283748299989384,52.283748299989384,0.21222566670621745,1.4811359705170508,52.50086860000738,52.283748299989384,,,,,qmbami,001,fr,0,2022-04-27_14h42.41.817,Continuous,2022.1.1,36.41701708811619,
0,0,0,0,3,0,3,0,,,,,,,,1.2689103038108334,time,1498.0,-1.9191452864261356,3.8766710523012064e-05,0,29,[],0.012195166666060686,None,None,53.765482499991776,53.765482499991776,0.21024436666630208,1.4791546704771354,53.97735559998546,53.765482499991776,,,,,qmbami,001,fr,0,2022-04-27_14h42.41.817,Continuous,2022.1.1,36.41701708811619,
0,0,0,0,4,0,4,0,,,,,,,,1.2689103038108334,time,140.0,-2.1980199035821615,0.0004574517202918496,0,30,[],0.012212566682137549,None,None,55.245708000002196,55.245708000002196,0.21092246667831205,1.4798327704891454,55.45414129999699,55.245708000002196,,,,,qmbami,001,fr,0,2022-04-27_14h42.41.817,Continuous,2022.1.1,36.41701708811619,
0,0,0,0,5,0,5,0,,,,,,,,1.2689103038108334,time,530.0,-0.832809751077525,6.0660547855019304e-05,0,31,[],0.012092966644559056,None,None,56.72354489998543,56.72354489998543,0.21212216664571315,1.4810324704565465,56.938890199991874,56.72354489998543,,,,,qmbami,001,fr,0,2022-04-27_14h42.41.817,Continuous,2022.1.1,36.41701708811619,
0,0,0,0,6,0,6,0,,,,,,,,1.2689103038108334,time,250.0,-0.9574418345816615,0.00015000229807279376,0,32,[],0.011733466642908752,None,None,58.205311300000176,58.205311300000176,0.2110985666513443,1.4800088704621777,58.420228300004965,58.205311300000176,,,,,qmbami,001,fr,0,2022-04-27_14h42.41.817,Continuous,2022.1.1,36.41701708811619,
0,0,0,0,7,0,7,0,,,,,,,,1.2689103038108334,time,315.0,-0.32926322418921683,9.495259606520847e-05,0,33,[],0.011460266658104956,None,None,59.68396789999679,59.68396789999679,0.20765366667183116,1.4765639704826645,59.894224899995606,59.68396789999679,,,,,qmbami,001,fr,0,2022-04-27_14h42.41.817,Continuous,2022.1.1,36.41701708811619,
0,0,0,0,8,0,8,0,,,,,,,,1.2689103038108334,time,176.0,-2.0075007402017166,0.00028003653518836975,0,34,[],0.011876866687089205,None,None,61.163490899984026,61.163490899984026,0.2114820666902233,1.4803923705010567,61.376907500001835,61.163490899984026,,,,,qmbami,001,fr,0,2022-04-27_14h42.41.817,Continuous,2022.1.1,36.41701708811619,
0,0,0,0,9,0,9,0,,,,,,,,1.2689103038108334,time,,,,1,34,[],0.012250666652107611,None,None,62.64502480000374,62.64502480000374,0.2114007666532416,1.480311070464075,62.85497939999914,62.64502480000374,,,,,qmbami,001,fr,0,2022-04-27_14h42.41.817,Continuous,2022.1.1,36.41701708811619,
0,0,0,0,10,0,10,0,,,,,,,,1.2689103038108334,time,2827.0,-1.8575467145187912,5.294910937657249e-05,0,35,[],0.013084866688586771,None,None,64.1220931999851,64.1220931999851,0.2112466666731052,1.4801569704839386,64.33362359998864,64.1220931999851,,,,,qmbami,001,fr,0,2022-04-27_14h42.41.817,Continuous,2022.1.1,36.41701708811619,
0,0,0,0,11,0,11,0,,,,,,,,1.2689103038108334,time,354.0,-2.0,7.02951783824607e-05,0,36,[],0.01198726665461436,None,['space'],65.6059285000083,65.6059285000083,0.2124812666734215,1.4813915704842548,65.81549509998877,65.6059285000083,[-0.571011299995007],,,,qmbami,001,fr,0,2022-04-27_14h42.41.817,Continuous,2022.1.1,36.41701708811619,
1,0,1,0,0,0,0,0,,,,,,71.49326789999031,None,1.412713326626062,both,140.0,-2.073919138089,0.00046403453501254945,0,26,[],0.012937566643813625,None,None,72.52603390000877,None,0.22138046665349975,1.6340937932795618,72.74552930000937,None,,67.08656739999424,None,0.3333333333333333,qmbami,001,fr,0,2022-04-27_14h42.41.817,Continuous,2022.1.1,36.41701708811619,
1,0,1,0,1,0,1,0,,,,,,,,1.412713326626062,both,177.0,-2.0134696407269828,0.0002769557186806397,0,27,[],0.011340666649630293,None,None,74.14959620000445,74.14959620000445,0.20941056666197255,1.6221238932880346,74.36200190000818,74.14959620000445,,,,,qmbami,001,fr,0,2022-04-27_14h42.41.817,Continuous,2022.1.1,36.41701708811619,
1,0,1,0,2,0,2,0,,,,,,,,1.412713326626062,both,223.0,-1.7474125729014354,0.00018022010028175814,0,28,[],0.011721666698576882,None,None,75.7751394000079,75.7751394000079,0.21692846668884158,1.6296417933149037,75.99154940000153,75.7751394000079,,,,,qmbami,001,fr,0,2022-04-27_14h42.41.817,Continuous,2022.1.1,36.41701708811619,
1,0,1,0,3,0,3,0,,,,,,,,1.412713326626062,both,281.0,-0.6284005532522068,0.00012524414583404506,0,29,[],0.011709266633260995,None,None,77.39775020000525,77.39775020000525,0.20981566663249396,1.622528993258556,77.60709060000954,77.39775020000525,,,,,qmbami,001,fr,0,2022-04-27_14h42.41.817,Continuous,2022.1.1,36.41701708811619,
1,0,1,0,4,0,4,0,,,,,,,,1.412713326626062,both,354.0,-2.0,7.02951783824607e-05,0,30,[],0.011760266643250361,None,None,79.01649469998665,79.01649469998665,0.2104998666618485,1.6232131932879106,79.22781340000802,79.01649469998665,,,,,qmbami,001,fr,0,2022-04-27_14h42.41.817,Continuous,2022.1.1,36.41701708811619,
1,0,1,0,5,0,5,0,,,,,,,,1.412713326626062,both,446.0,-0.482357342621169,7.019545543038048e-05,0,31,[],0.011153166648000479,None,None,80.63935650000349,80.63935650000349,0.22406476666219532,1.6367780932882574,80.8562765000097,80.63935650000349,,,,,qmbami,001,fr,0,2022-04-27_14h42.41.817,Continuous,2022.1.1,36.41701708811619,
1,0,1,0,6,0,6,0,,,,,,,,1.412713326626062,both,,,,1,31,[],0.01164626664831303,None,None,82.2626811999944,82.2626811999944,0.21278076665475965,1.6254940932808217,82.47478819999378,82.2626811999944,,,,,qmbami,001,fr,0,2022-04-27_14h42.41.817,Continuous,2022.1.1,36.41701708811619,
1,0,1,0,7,0,7,0,,,,,,,,1.412713326626062,both,708.0,-1.8894948949129402,3.5659090971715816e-05,0,32,[],0.012587366654770449,0.2103725666529499,None,83.88832949998323,83.88832949998323,0.2103725666529499,1.623085893279012,84.09898680000333,83.88832949998323,,,,,qmbami,001,fr,0,2022-04-27_14h42.41.817,Continuous,2022.1.1,36.41701708811619,
1,0,1,0,8,0,8,0,,,,,,,,1.412713326626062,both,892.0,-2.067289233204781,3.2302643038141334e-05,0,33,[],0.011414666631026193,None,['space'],85.511774899991,85.511774899991,0.2084294666419737,1.6211427932680358,85.72230249998393,85.511774899991,[-1.0840931000129785],,,,qmbami,001,fr,0,2022-04-27_14h42.41.817,Continuous,2022.1.1,36.41701708811619,
1,0,1,0,9,0,9,0,,,,,,,,1.412713326626062,both,1124.0,-1.9748502235011913,3.922534525638003e-05,0,34,[],0.011137666646391153,None,None,87.13597259999369,87.13597259999369,0.21090586663922295,1.623619193265285,87.35038439999335,87.13597259999369,,,,,qmbami,001,fr,0,2022-04-27_14h42.41.817,Continuous,2022.1.1,36.41701708811619,
1,0,1,0,10,0,10,0,,,,,,,,1.412713326626062,both,1416.0,-0.9494942619686244,4.5170230818693446e-05,0,35,[],0.011386466649128124,None,None,88.75745430000825,88.75745430000825,0.21404596665524878,1.6267592932813109,88.97036639999715,88.75745430000825,,,,,qmbami,001,fr,0,2022-04-27_14h42.41.817,Continuous,2022.1.1,36.41701708811619,
2,0,2,0,0,0,0,0,,,,,"[0.3333333333333333, 0.5833333333333334, 0.3333333333333333, 0.5833333333333334, 0.16666666666666666, 0.3333333333333333, 0.5833333333333334, 0.3333333333333333, 0.16666666666666666, 0.5833333333333334, 0.3333333333333333, 0.3333333333333333, 0.5833333333333334, 0.3333333333333333, 0.5833333333333334]",109.80367309998837,None,2.984980262249505,time,1533.0,1.0615033466966555,5.773169717526705e-05,0,37,[],0.012963766697794199,None,None,110.81984089998878,None,0.21783406668691896,3.202814328936424,111.03090079998947,None,,90.3772723999864,None,,qmbami,001,fr,0,2022-04-27_14h42.41.817,Continuous,2022.1.1,36.41701708811619,
2,0,2,0,1,0,1,0,,,,,,,,2.984980262249505,time,542.0,0.0031246804912703485,6.49160311488924e-05,0,38,[],0.010932866687653586,None,None,114.01748609999777,114.01748609999777,0.21142676667659543,3.1964070289261004,114.23110899998574,114.01748609999777,,,,,qmbami,001,fr,0,2022-04-27_14h42.41.817,Continuous,2022.1.1,36.41701708811619,
2,0,2,0,2,0,2,0,,,,,,,,2.984980262249505,time,4595.0,0.0,0.0001248796844851434,0,39,[],0.0026271666574757546,None,None,117.21943719999399,117.21943719999399,0.1943548666604329,3.179335128909938,117.43434430001071,117.21943719999399,,,,,qmbami,001,fr,0,2022-04-27_14h42.41.817,Continuous,2022.1.1,36.41701708811619,
2,0,2,0,3,0,3,0,,,,,,,,2.984980262249505,time,812.0,-1.7311892807369869,3.171421899233567e-05,0,40,[],0.007129166653612629,0.19726546664605848,None,120.41636790000484,120.41636790000484,0.19726546664605848,3.1822457288955635,120.62417359999381,120.41636790000484,,,,,qmbami,001,fr,0,2022-04-27_14h42.41.817,Continuous,2022.1.1,36.41701708811619,
2,0,2,0,4,0,4,0,,,,,,,,2.984980262249505,time,3249.0,-2.501314886073843,5.3052284882612515e-05,0,41,[],0.007293966657016426,0.19842786664958112,None,123.60292509998544,123.60292509998544,0.19842786664958112,3.183408128899086,123.8103010999912,123.60292509998544,,,,,qmbami,001,fr,0,2022-04-27_14h42.41.817,Continuous,2022.1.1,36.41701708811619,
2,0,2,0,5,0,5,0,,,,,,,,2.984980262249505,time,,,,1,41,[],0.011038666649255902,None,None,126.79750409998815,126.79750409998815,0.2125892666517757,3.1975695289012807,127.00942509999732,126.79750409998815,,,,,qmbami,001,fr,0,2022-04-27_14h42.41.817,Continuous,2022.1.1,36.41701708811619,
2,0,2,0,6,0,6,0,,,,,,,,2.984980262249505,time,2168.0,0.06572751802190213,7.913243254427165e-05,0,42,[],0.007957766647450626,None,['space'],129.99345089998678,129.99345089998678,0.22646886666188948,3.2114491289113944,130.211447699985,129.99345089998678,[0.08119969998369925],,,,qmbami,001,fr,0,2022-04-27_14h42.41.817,Continuous,2022.1.1,36.41701708811619,
2,0,2,0,7,0,7,0,,,,,,,,2.984980262249505,time,6885.0,-2.5045180678755274,0.00011073229789406614,0,43,[],0.004036366706714034,0.19458216670318507,None,133.20001289999345,133.20001289999345,0.19458216670318507,3.17956242895269,133.41178679998848,133.20001289999345,,,,,qmbami,001,fr,0,2022-04-27_14h42.41.817,Continuous,2022.1.1,36.41701708811619,
2,0,2,0,8,0,8,0,,,,,,,,2.984980262249505,time,4094.0,-3.7815504048990256,5.849639569761358e-05,0,44,[],0.010850966646103188,None,None,136.3984569000022,136.3984569000022,0.20982056666980498,3.19480082891931,136.6095679999853,136.3984569000022,,,,,qmbami,001,fr,0,2022-04-27_14h42.41.817,Continuous,2022.1.1,36.41701708811619,
2,0,2,0,9,0,9,0,,,,,,,,2.984980262249505,time,1721.0,2.1933301718206755,8.00857224401664e-05,0,45,[],0.010654066689312458,None,None,139.59625219998998,139.59625219998998,0.20913676667260006,3.194117028922105,139.82151149999117,139.59625219998998,,,,,qmbami,001,fr,0,2022-04-27_14h42.41.817,Continuous,2022.1.1,36.41701708811619,
3,0,3,0,0,0,0,0,,,,,,147.65727229998447,None,1.5485232632169033,both,675.0,-0.02600732037828235,4.7077307910151515e-05,0,36,[],0.012813066656235605,None,None,148.68528259999584,None,0.20984746667090803,1.7583707298878113,148.90190150000853,None,,142.79642669999157,None,0.3333333333333333,qmbami,001,fr,0,2022-04-27_14h42.41.817,Continuous,2022.1.1,36.41701708811619,
3,0,3,0,1,0,1,0,,,,,,,,1.5485232632169033,both,851.0,-0.3757688232945864,3.8131730421301e-05,0,37,[],0.010334166639950126,None,None,150.4365145000047,150.4365145000047,0.20977176664746366,1.758295029864367,150.65067309999722,150.4365145000047,,,,,qmbami,001,fr,0,2022-04-27_14h42.41.817,Continuous,2022.1.1,36.41701708811619,
3,0,3,0,2,0,2,0,,,,,,,,1.5485232632169033,both,1072.0,-1.3046738747361815,4.050000809185111e-05,0,38,[],0.010045866685686633,None,None,152.19872799998848,152.19872799998848,0.20612006666488014,1.7546433298817834,152.40627859998494,152.19872799998848,,,,,qmbami,001,fr,0,2022-04-27_14h42.41.817,Continuous,2022.1.1,36.41701708811619,
3,0,3,0,3,0,3,0,,,,,,,,1.5485232632169033,both,1351.0,0.6228567478775258,5.586767434027163e-05,0,39,[],0.010515166708501056,None,None,153.95672220000415,153.95672220000415,0.2094845667015761,1.7580078299184794,154.171061800007,153.95672220000415,,,,,qmbami,001,fr,0,2022-04-27_14h42.41.817,Continuous,2022.1.1,36.41701708811619,
3,0,3,0,4,0,4,0,,,,,,,,1.5485232632169033,both,1702.0,1.378105705274573,7.190571993018117e-05,0,40,[],0.009822266642004251,None,None,155.71893949998775,155.71893949998775,0.20581396663328633,1.7543372298501896,155.93337690000772,155.71893949998775,,,,,qmbami,001,fr,0,2022-04-27_14h42.41.817,Continuous,2022.1.1,36.41701708811619,
3,0,3,0,5,0,5,0,,,,,,,,1.5485232632169033,both,2144.0,0.8426649993637725,8.5950696541907e-05,0,41,[],0.010503766650799662,None,None,157.47682599999825,157.47682599999825,0.20975776665727608,1.7582810298741793,157.6917783000099,157.47682599999825,,,,,qmbami,001,fr,0,2022-04-27_14h42.41.817,Continuous,2022.1.1,36.41701708811619,
3,0,3,0,6,0,6,0,,,,,,,,1.5485232632169033,both,2701.0,-0.14135228746938858,7.221976835730173e-05,0,42,[],0.010534466651733965,None,None,159.23907029998372,159.23907029998372,0.2086576666624751,1.7571809298793784,159.44642880000174,159.23907029998372,,,,,qmbami,001,fr,0,2022-04-27_14h42.41.817,Continuous,2022.1.1,36.41701708811619,
3,0,3,0,7,0,7,0,,,,,,,,1.5485232632169033,both,3403.0,-2.2534544323709933,5.6673570560987966e-05,0,43,[],0.010516466660192236,None,None,160.99731020000763,160.99731020000763,0.21123556667589583,1.759758829892799,161.20780390000436,160.99731020000763,,,,,qmbami,001,fr,0,2022-04-27_14h42.41.817,Continuous,2022.1.1,36.41701708811619,
3,0,3,0,8,0,8,0,,,,,,,,1.5485232632169033,both,4287.0,0.0,0.0001036874812207119,0,44,[],0.010373566678026691,None,None,162.75908059999347,162.75908059999347,0.20827626666869037,1.7567995298855936,162.9736784999841,162.75908059999347,,,,,qmbami,001,fr,0,2022-04-27_14h42.41.817,Continuous,2022.1.1,36.41701708811619,
3,0,3,0,9,0,9,0,,,,,,,,1.5485232632169033,both,5401.0,-0.45882123557996035,0.000130860288781003,0,45,[],0.0031871667015366256,0.1929489666945301,None,164.5183097999834,164.5183097999834,0.1929489666945301,1.7414722299114334,164.72797139998875,164.5183097999834,,,,,qmbami,001,fr,0,2022-04-27_14h42.41.817,Continuous,2022.1.1,36.41701708811619,
3,0,3,0,10,0,10,0,,,,,,,,1.5485232632169033,both,,,,1,45,[],0.010376966674812138,None,None,166.27926680000382,166.27926680000382,0.21109226666158065,1.759615529878484,166.4864178999851,166.27926680000382,,,,,qmbami,001,fr,0,2022-04-27_14h42.41.817,Continuous,2022.1.1,36.41701708811619,
4,0,4,0,0,0,0,0,,,,,"[0.16666666666666666, 0.5833333333333334, 0.3333333333333333, 0.16666666666666666, 0.5833333333333334, 0.16666666666666666, 0.3333333333333333, 0.3333333333333333, 0.5833333333333334, 0.5833333333333334, 0.16666666666666666, 0.5833333333333334, 0.5833333333333334, 0.16666666666666666, 0.5833333333333334]",170.90278780000517,None,1.3224518086022632,time,,,,1,45,[],0.013036966643994674,None,['space'],171.9422449999838,None,0.2215002666634973,1.5439520752657605,172.1567076999927,None,[-0.6994013999938034],168.03388919998542,None,,qmbami,001,fr,0,2022-04-27_14h42.41.817,Continuous,2022.1.1,36.41701708811619,
4,0,4,0,1,0,1,0,,,,,,,,1.3224518086022632,time,766.0,3.9671303862644116,6.30205232774719e-05,0,46,[],0.011146466684294865,0.20831316665862687,['space'],173.48004789999686,173.48004789999686,0.20831316665862687,1.53076497526089,173.6923557999835,173.48004789999686,[-0.4287882999924477],,,,qmbami,001,fr,0,2022-04-27_14h42.41.817,Continuous,2022.1.1,36.41701708811619,
4,0,4,0,2,0,2,0,,,,,,,,1.3224518086022632,time,304.0,2.407557866769552,0.0001454968275647302,0,47,[],0.010142266663024202,None,None,175.01287690000026,175.01287690000026,0.20816016668686643,1.5306119752891296,175.22766070000944,175.01287690000026,,,,,qmbami,001,fr,0,2022-04-27_14h42.41.817,Continuous,2022.1.1,36.41701708811619,
4,0,4,0,3,0,3,0,,,,,,,,1.3224518086022632,time,511.0,4.2185394222617925,0.00011332833315406037,0,48,[],0.00991156668169424,None,None,176.55177099999855,176.55177099999855,0.2086430666677188,1.531094875269982,176.76569870000822,176.55177099999855,,,,,qmbami,001,fr,0,2022-04-27_14h42.41.817,Continuous,2022.1.1,36.41701708811619,
4,0,4,0,4,0,4,0,,,,,,,,1.3224518086022632,time,135.0,-1.8952226787919777,0.0005094679898114301,0,49,[],0.010084266657941043,None,None,178.0921999999846,178.0921999999846,0.2091082666593138,1.531560075261577,178.29712430000654,178.0921999999846,,,,,qmbami,001,fr,0,2022-04-27_14h42.41.817,Continuous,2022.1.1,36.41701708811619,
4,0,4,0,5,0,5,0,,,,,,,,1.3224518086022632,time,341.0,0.9925022660495639,0.00010299235534644965,0,50,[],0.009962266660295427,None,None,179.62027909999597,179.62027909999597,0.21221916668582708,1.5346709752880903,179.8337874999852,179.62027909999597,,,,,qmbami,001,fr,0,2022-04-27_14h42.41.817,Continuous,2022.1.1,36.41701708811619,
4,0,4,0,6,0,6,0,,,,,,,,1.3224518086022632,time,1289.0,4.86614540015974,9.375482033250952e-05,0,51,[],0.009861366648692638,None,None,181.16127740000957,181.16127740000957,0.20946926664328203,1.5319210752455452,181.37348340000608,181.16127740000957,,,,,qmbami,001,fr,0,2022-04-27_14h42.41.817,Continuous,2022.1.1,36.41701708811619,
4,0,4,0,7,0,7,0,,,,,,,,1.3224518086022632,time,203.0,5.0,0.0004615784761602543,0,52,[],0.008519266673829406,0.20331396666006185,None,182.69724710000446,182.69724710000446,0.20331396666006185,1.525765775262325,182.90604400000302,182.69724710000446,,,,,qmbami,001,fr,0,2022-04-27_14h42.41.817,Continuous,2022.1.1,36.41701708811619,
5,0,5,0,0,0,0,0,,,,,,186.28809039999032,None,2.483673537925604,frequency,140.0,-2.2056330375332243,0.00045705094206926393,0,26,[],0.012954066653037444,None,None,187.32480929998565,None,0.21481866665999405,2.698492204585598,187.53966229999787,None,,184.23187270000926,None,0.3333333333333333,qmbami,001,fr,0,2022-04-27_14h42.41.817,Continuous,2022.1.1,36.41701708811619,
5,0,5,0,1,0,1,0,,,,,,,,2.842693309352419,frequency,177.0,-2.022511048548504,0.00027666757700762644,0,27,[],0.007630666688783094,None,None,190.02220020000823,190.02220020000823,0.20187566668028012,3.044568976032699,190.23463459999766,190.02220020000823,,,,,qmbami,001,fr,0,2022-04-27_14h42.41.817,Continuous,2022.1.1,36.41701708811619,
5,0,5,0,2,0,2,0,,,,,,,,1.1405373456993173,frequency,223.0,-1.7774969743537161,0.000179596970651938,0,28,[],0.0021068666537757963,0.1912240666570142,None,193.08279829999083,193.08279829999083,0.1912240666570142,1.3317614123563315,193.29096529999515,193.08279829999083,,,,,qmbami,001,fr,0,2022-04-27_14h42.41.817,Continuous,2022.1.1,36.41701708811619,
5,0,5,0,3,0,3,0,,,,,,,,1.1595056823218126,frequency,281.0,-1.845011661704158,0.00010887467704863856,0,29,[],0.00424726668279618,0.19690976667334326,None,194.4310470999917,194.4310470999917,0.19690976667334326,1.3564154489951559,194.64127170000575,194.4310470999917,,,,,qmbami,001,fr,0,2022-04-27_14h42.41.817,Continuous,2022.1.1,36.41701708811619,
5,0,5,0,4,0,4,0,,,,,,,,1.6703108454601407,frequency,354.0,-2.0,7.02951783824607e-05,0,30,[],0.007201266649644822,0.19934016664046794,None,195.79477730000508,195.79477730000508,0.19934016664046794,1.8696510121006087,196.00724750000518,195.79477730000508,,,,,qmbami,001,fr,0,2022-04-27_14h42.41.817,Continuous,2022.1.1,36.41701708811619,
5,0,5,0,5,0,5,0,,,,,,,,2.9117992245871127,frequency,446.0,0.48033799098422725,7.84230561517083e-05,0,31,[],0.008711966685950756,0.2037101666792296,None,197.68019220000133,197.68019220000133,0.2037101666792296,3.1155093912663423,197.8846380999894,197.68019220000133,,,,,qmbami,001,fr,0,2022-04-27_14h42.41.817,Continuous,2022.1.1,36.41701708811619,
5,0,5,0,6,0,6,0,,,,,,,,2.355374841935901,frequency,562.0,-1.9311436391482661,4.9458304679990635e-05,0,32,[],0.009451166639337316,None,None,200.79925079998793,200.79925079998793,0.2069222666323185,2.5622971085682194,201.00870489998488,200.79925079998793,,,,,qmbami,001,fr,0,2022-04-27_14h42.41.817,Continuous,2022.1.1,36.41701708811619,
5,0,5,0,7,0,7,0,,,,,,,,2.7405837581983254,frequency,708.0,-1.0821126524455802,3.913266093600142e-05,0,33,[],0.009504866640781984,None,None,203.3604711999942,203.3604711999942,0.20980396663071588,2.9503877248290413,203.58471200001077,203.3604711999942,,,,,qmbami,001,fr,0,2022-04-27_14h42.41.817,Continuous,2022.1.1,36.41701708811619,
5,0,5,0,8,0,8,0,,,,,,,,2.3544375554405597,frequency,892.0,-2.0010006940607106,3.255011184641988e-05,0,34,[],0.009417066699825227,None,None,206.31723190000048,206.31723190000048,0.20903386667487212,2.5634714221154318,206.52608020001207,206.31723190000048,,,,,qmbami,001,fr,0,2022-04-27_14h42.41.817,Continuous,2022.1.1,36.41701708811619,
5,0,5,0,9,0,9,0,,,,,,,,2.6252311854777806,frequency,,,,1,34,[],0.0023643666645511985,0.19060216666548513,None,208.8828427999979,208.8828427999979,0.19060216666548513,2.8158333521432657,209.08904940000502,208.8828427999979,,,,,qmbami,001,fr,0,2022-04-27_14h42.41.817,Continuous,2022.1.1,36.41701708811619,
5,0,5,0,10,0,10,0,,,,,,,,2.7243567400374467,frequency,1416.0,0.08699107104300552,5.089517083413759e-05,0,35,[],0.010538466653088108,None,None,211.71211019999464,211.71211019999464,0.20930896667414345,2.93366570671159,211.9225133,211.71211019999464,,,,,qmbami,001,fr,0,2022-04-27_14h42.41.817,Continuous,2022.1.1,36.41701708811619,
6,0,6,0,0,0,0,0,,,,,"[0.16666666666666666, 0.5833333333333334, 0.5833333333333334, 0.3333333333333333, 0.16666666666666666, 0.16666666666666666, 0.16666666666666666, 0.3333333333333333, 0.3333333333333333, 0.5833333333333334, 0.3333333333333333, 0.16666666666666666, 0.5833333333333334, 0.3333333333333333, 0.3333333333333333]",217.59323520000908,None,2.124862603952864,none,1784.0,0.47533398742793054,6.871826109586844e-05,0,26,[],0.012945366674102843,None,None,218.62284550000913,None,0.21838596666930243,2.3432485706221664,218.83641570000327,None,,214.64824149999185,None,,qmbami,001,fr,0,2022-04-27_14h42.41.817,Continuous,2022.1.1,36.41701708811619,
6,0,6,0,1,0,1,0,,,,,,,,1.259062811277875,none,750.0,-1.663903167871035,3.3556360076212806e-05,0,27,[],0.008990866655949503,None,['space'],220.9654043999908,220.9654043999908,0.20822026664973237,1.4672830779276074,221.1758397000085,220.9654043999908,[-0.6501368999888655],,,,qmbami,001,fr,0,2022-04-27_14h42.41.817,Continuous,2022.1.1,36.41701708811619,
6,0,6,0,2,0,2,0,,,,,,,,2.0003610439227657,none,1124.0,-1.0871984166525461,4.3445956719281246e-05,0,28,[],0.009065966645721346,None,None,222.43895630000043,222.43895630000043,0.20773776664282195,2.2080988105655877,222.64938019998954,222.43895630000043,,,,,qmbami,001,fr,0,2022-04-27_14h42.41.817,Continuous,2022.1.1,36.41701708811619,
6,0,6,0,3,0,3,0,,,,,,,,1.503704195078285,none,354.0,-2.0,7.02951783824607e-05,0,29,[],0.009014666691655293,None,None,224.65318140000454,224.65318140000454,0.21111096668755636,1.7148151617658414,224.868916300009,224.65318140000454,,,,,qmbami,001,fr,0,2022-04-27_14h42.41.817,Continuous,2022.1.1,36.41701708811619,
6,0,6,0,4,0,4,0,,,,,,,,2.590818303046545,none,530.0,0.42563470913477014,7.011784359483764e-05,0,30,[],0.008139266690704972,None,None,226.36943289998453,226.36943289998453,0.20617236668476835,2.796990669731313,226.58262699999614,226.36943289998453,,,,,qmbami,001,fr,0,2022-04-27_14h42.41.817,Continuous,2022.1.1,36.41701708811619,
6,0,6,0,5,0,5,0,,,,,,,,2.382857972814204,none,158.0,-2.3442557249083436,0.00032746927264957966,0,31,[],0.00887866664561443,None,None,229.17783649999183,229.17783649999183,0.20874386664945632,2.59160183946366,229.38949319999665,229.17783649999183,,,,,qmbami,001,fr,0,2022-04-27_14h42.41.817,Continuous,2022.1.1,36.41701708811619,
6,0,6,0,6,0,6,0,,,,,,,,2.7015403358681933,none,1416.0,-0.041159768100668126,5.0149780268105895e-05,0,32,[],0.008862666698405519,None,None,231.77833529998315,231.77833529998315,0.20798176669632085,2.909522102564514,231.9899277999939,231.77833529998315,,,,,qmbami,001,fr,0,2022-04-27_14h42.41.817,Continuous,2022.1.1,36.41701708811619,
6,0,6,0,7,0,7,0,,,,,,,,2.1519029064423654,none,668.0,-1.147066711915894,4.191487492144571e-05,0,33,[],0.008768666681135073,0.20751756665413268,None,234.69588620000286,234.69588620000286,0.20751756665413268,2.359420473096498,234.91295609998633,234.69588620000286,,,,,qmbami,001,fr,0,2022-04-27_14h42.41.817,Continuous,2022.1.1,36.41701708811619,
6,0,6,0,8,0,8,0,,,,,,,,2.1298511641256885,none,177.0,-2.0191756180163454,0.0002767738393164979,0,34,[],0.004804866679478437,0.19519406667677686,None,237.05629380000755,237.05629380000755,0.19519406667677686,2.3250452308024654,237.26243559998693,237.05629380000755,,,,,qmbami,001,fr,0,2022-04-27_14h42.41.817,Continuous,2022.1.1,36.41701708811619,
6,0,6,0,9,0,9,0,,,,,,,,1.1280390351939398,none,125.0,-2.2675254413572854,0.0005566647643149386,0,35,[],0.004207166668493301,0.19722316667321138,None,239.39366359999985,239.39366359999985,0.19722316667321138,1.3252622018671512,239.60660880000796,239.39366359999985,,,,,qmbami,001,fr,0,2022-04-27_14h42.41.817,Continuous,2022.1.1,36.41701708811619,
6,0,6,0,10,0,10,0,,,,,,,,1.1851976296578968,none,199.0,-1.6937048123379723,0.00022141291855709696,0,36,[],0.00856016666512005,None,None,240.73530110000866,240.73530110000866,0.21315916668390855,1.3983567963418053,240.95203700001002,240.73530110000866,,,,,qmbami,001,fr,0,2022-04-27_14h42.41.817,Continuous,2022.1.1,36.41701708811619,
6,0,6,0,11,0,11,0,,,,,,,,1.5278508266073993,none,223.0,-1.3137211972082066,0.00018944702766922968,0,37,[],0.008530266670277342,None,None,242.14293269999325,242.14293269999325,0.20839796666405164,1.736248793271451,242.3528268999944,242.14293269999325,,,,,qmbami,001,fr,0,2022-04-27_14h42.41.817,Continuous,2022.1.1,36.41701708811619,
6,0,6,0,12,0,12,0,,,,,,,,2.83120622030865,none,,,,1,37,[],0.004247666656738147,0.19503236666787416,None,243.88234399998328,243.88234399998328,0.19503236666787416,3.026238586976524,244.0914017999894,243.88234399998328,,,,,qmbami,001,fr,0,2022-04-27_14h42.41.817,Continuous,2022.1.1,36.41701708811619,
7,0,7,0,0,0,0,0,,,,,,249.8666843000101,None,1.855206400941485,frequency,1701.0,2.8909309163974957,8.55234036604944e-05,0,36,[],0.013067566702375188,None,None,250.9016694999882,None,0.21647086669690907,2.0716772676383943,251.11041419999674,None,,246.92511650000233,None,0.16666666666666666,qmbami,001,fr,0,2022-04-27_14h42.41.817,Continuous,2022.1.1,36.41701708811619,
7,0,7,0,1,0,1,0,,,,,,,,2.511344568671418,frequency,1909.0,1.4630563746212466,8.367384776564292e-05,0,37,[],0.008128466666676104,None,None,252.9707386000082,252.9707386000082,0.2074256666819565,2.7187702353533747,253.17812309999135,252.9707386000082,,,,,qmbami,001,fr,0,2022-04-27_14h42.41.817,Continuous,2022.1.1,36.41701708811619,
7,0,7,0,2,0,2,0,,,,,,,,2.851551887695134,frequency,2143.0,0.8857882640213488,8.635393406276545e-05,0,38,[],0.005833566654473543,0.19786506667151116,None,255.69195350000518,255.69195350000518,0.19786506667151116,3.049416954366645,255.8989944999921,255.69195350000518,,,,,qmbami,001,fr,0,2022-04-27_14h42.41.817,Continuous,2022.1.1,36.41701708811619,
7,0,7,0,3,0,3,0,,,,,,,,1.291766857867812,frequency,2405.0,0.7623938346218097,9.147647856166606e-05,0,39,[],0.008421566686592996,0.20714606667752378,None,258.7556510999857,258.7556510999857,0.20714606667752378,1.4989129245453359,258.96965980000095,258.7556510999857,,,,,qmbami,001,fr,0,2022-04-27_14h42.41.817,Continuous,2022.1.1,36.41701708811619,
7,0,7,0,4,0,4,0,,,,,,,,1.7986784697191978,frequency,2700.0,-0.112142806279045,7.252438841909974e-05,0,40,[],0.00045746666728518903,None,None,260.2550055999891,260.2550055999891,0.19497146664070897,1.9936499363599067,260.47481359998346,260.2550055999891,,,,,qmbami,001,fr,0,2022-04-27_14h42.41.817,Continuous,2022.1.1,36.41701708811619,
7,0,7,0,5,0,5,0,,,,,,,,2.768891354424282,frequency,3031.0,-1.3161293168975785,4.963667900201937e-05,0,41,[],0.008319866639794782,None,None,262.2742744999996,262.2742744999996,0.20841416664188728,2.977305521066169,262.48462770000333,262.2742744999996,,,,,qmbami,001,fr,0,2022-04-27_14h42.41.817,Continuous,2022.1.1,36.41701708811619,
7,0,7,0,6,0,6,0,,,,,,,,1.1119844230269744,frequency,3402.0,-1.4395692730804344,6.222587919965113e-05,0,42,[],0.005750066629843786,0.19992586664739065,None,265.2522086999961,265.2522086999961,0.19992586664739065,1.311910289674365,265.460651100002,265.2522086999961,,,,,qmbami,001,fr,0,2022-04-27_14h42.41.817,Continuous,2022.1.1,36.41701708811619,
7,0,7,0,7,0,7,0,,,,,,,,1.0962992990768616,frequency,3819.0,-0.8523561581590471,7.321400109465146e-05,0,43,[],0.004199366638204083,0.19687966664787382,None,266.5726982000051,266.5726982000051,0.19687966664787382,1.2931789657247355,266.7850796999992,266.5726982000051,,,,,qmbami,001,fr,0,2022-04-27_14h42.41.817,Continuous,2022.1.1,36.41701708811619,
7,0,7,0,8,0,8,0,,,,,,,,1.57975904668132,frequency,4287.0,0.0,0.0001036874812207119,0,44,[],0.007946966652525589,None,None,267.8814262000087,267.8814262000087,0.20986956666456535,1.7896286133458854,268.091786999983,267.8814262000087,,,,,qmbami,001,fr,0,2022-04-27_14h42.41.817,Continuous,2022.1.1,36.41701708811619,
7,0,7,0,9,0,9,0,,,,,,,,2.1843788746950463,frequency,4812.0,-1.1740346785222346,0.00012213446256200647,0,45,[],0.004182166652753949,0.19419716665288433,None,269.674013699987,269.674013699987,0.19419716665288433,2.3785760413479307,269.881352299999,269.674013699987,,,,,qmbami,001,fr,0,2022-04-27_14h42.41.817,Continuous,2022.1.1,36.41701708811619,
7,0,7,0,10,0,10,0,,,,,,,,1.5977769373808564,frequency,5401.0,-4.574590940004576,8.147406574202908e-05,0,46,[],0.008025766641367227,None,None,272.0682090999908,272.0682090999908,0.20779346663039178,1.8055704040112481,272.2872139000101,272.0682090999908,,,,,qmbami,001,fr,0,2022-04-27_14h42.41.817,Continuous,2022.1.1,36.41701708811619,
7,0,7,0,11,0,11,0,,,,,,,,1.2331878278777821,frequency,6062.0,-5.109368452735033,6.59655887694725e-05,0,47,[],0.00409306664369069,0.19568936663563363,None,273.87930949998554,273.87930949998554,0.19568936663563363,1.4288771945134158,274.0874580999953,273.87930949998554,,,,,qmbami,001,fr,0,2022-04-27_14h42.41.817,Continuous,2022.1.1,36.41701708811619,
7,0,7,0,12,0,12,0,,,,,,,,2.202615207394871,frequency,6804.0,-3.497966241089071,9.712336415834883e-05,0,48,[],0.007774366706144065,None,None,275.32725559998653,275.32725559998653,0.20768676669104025,2.410301974085911,275.53750869998476,275.32725559998653,,,,,qmbami,001,fr,0,2022-04-27_14h42.41.817,Continuous,2022.1.1,36.41701708811619,
7,0,7,0,13,0,13,0,,,,,,,,2.246484010962126,frequency,7637.0,-1.362119881348609,0.00014578375855168484,0,49,[],0.007805166649632156,None,None,277.7466315999918,277.7466315999918,0.20803336665267125,2.4545173776147973,277.957322000002,277.7466315999918,,,,,qmbami,001,fr,0,2022-04-27_14h42.41.817,Continuous,2022.1.1,36.41701708811619,
7,0,7,0,14,0,14,0,,,,,,,,2.1858544404454046,frequency,,,,1,49,[],0.007622466655448079,0.20544366666581482,None,280.2114423000021,280.2114423000021,0.20544366666581482,2.3912981071112194,280.4283373999933,280.2114423000021,,,,,qmbami,001,fr,0,2022-04-27_14h42.41.817,Continuous,2022.1.1,36.41701708811619,
8,0,8,0,0,0,0,0,,,,,,285.45577599998796,None,2.533401888365499,both,158.0,3.4540693407197147,0.0006383910775219904,0,46,[],0.012841066636610776,None,None,286.49126400001114,None,0.22799446663702838,2.7613963550025273,286.7050670000026,None,,282.6038472999935,None,0.5833333333333334,qmbami,001,fr,0,2022-04-27_14h42.41.817,Continuous,2022.1.1,36.41701708811619,
8,0,8,0,1,0,1,0,,,,,,,,2.533401888365499,both,,,,1,46,[],0.0076947666821070015,None,None,289.2361680000031,289.2361680000031,0.20740656668203883,2.740808455047538,289.4483618999948,289.2361680000031,,,,,qmbami,001,fr,0,2022-04-27_14h42.41.817,Continuous,2022.1.1,36.41701708811619,
8,0,8,0,2,0,2,0,,,,,,,,2.533401888365499,both,354.0,5.0,0.000157371301784247,0,47,[],0.005132566642714664,0.19512326666153967,None,291.9833728999947,291.9833728999947,0.19512326666153967,2.7285251550270386,292.1857841000019,291.9833728999947,,,,,qmbami,001,fr,0,2022-04-27_14h42.41.817,Continuous,2022.1.1,36.41701708811619,
8,0,8,0,3,0,3,0,,,,,,,,2.533401888365499,both,530.0,2.6671805118815417,9.076237287256778e-05,0,48,[],0.007787566661136225,None,None,294.7243060999899,294.7243060999899,0.20795176667161286,2.741353655037112,294.9429046000005,294.7243060999899,,,,,qmbami,001,fr,0,2022-04-27_14h42.41.817,Continuous,2022.1.1,36.41701708811619,
8,0,8,0,4,0,4,0,,,,,,,,2.533401888365499,both,794.0,0.797526258794488,4.23568269197152e-05,0,49,[],0.007539066660683602,None,None,297.4770442000008,297.4770442000008,0.21040596667444333,2.7438078550399423,297.68943979998585,297.4770442000008,,,,,qmbami,001,fr,0,2022-04-27_14h42.41.817,Continuous,2022.1.1,36.41701708811619,
8,0,8,0,5,0,5,0,,,,,,,,2.533401888365499,both,1190.0,2.013750899362425,6.556733384428524e-05,0,50,[],0.0040867666830308735,None,None,300.2234851999965,300.2234851999965,0.19391576666384935,2.7273176550293483,300.43314089998603,300.2234851999965,,,,,qmbami,001,fr,0,2022-04-27_14h42.41.817,Continuous,2022.1.1,36.41701708811619,
8,0,8,0,6,0,6,0,,,,,,,,2.533401888365499,both,1783.0,3.4985887004025296,9.725980087946413e-05,0,51,[],0.00755866669351235,None,None,302.97382139999536,302.97382139999536,0.20593046667636372,2.7393323550418627,303.18212039998616,302.97382139999536,,,,,qmbami,001,fr,0,2022-04-27_14h42.41.817,Continuous,2022.1.1,36.41701708811619,
8,0,8,0,7,0,7,0,,,,,,,,2.533401888365499,both,2671.0,4.842393141260617,0.0001314424332981035,0,52,[],0.00780156665132381,None,None,305.7251369000005,305.7251369000005,0.20806516663287766,2.7414670549983766,305.93431599999894,305.7251369000005,,,,,qmbami,001,fr,0,2022-04-27_14h42.41.817,Continuous,2022.1.1,36.41701708811619,
8,0,8,0,8,0,8,0,,,,,,,,2.533401888365499,both,4002.0,-3.277882085130198,5.764840557935026e-05,0,53,[],0.00023266664356924593,0.19262206665007398,None,308.47338390001096,308.47338390001096,0.19262206665007398,2.726023955015573,308.69053240001085,308.47338390001096,,,,,qmbami,001,fr,0,2022-04-27_14h42.41.817,Continuous,2022.1.1,36.41701708811619,
9,0,9,0,0,0,0,0,,,,,,314.20038759999443,None,2.712056578960421,both,137.0,2.198646262645889,0.0007932913356293327,0,54,[],0.007738066662568599,None,None,315.244495299994,None,0.20310346665792167,2.9151600456183426,315.46285630000057,None,,311.2256778999872,None,0.16666666666666666,qmbami,001,fr,0,2022-04-27_14h42.41.817,Continuous,2022.1.1,36.41701708811619,
9,0,9,0,1,0,1,0,,,,,,,,2.712056578960421,both,154.0,6.245632035481471,0.0009534612649985415,0,55,[],0.007084566634148359,None,None,318.17167250000057,318.17167250000057,0.20697456662310287,2.919031145583524,318.37795069999993,318.17167250000057,,,,,qmbami,001,fr,0,2022-04-27_14h42.41.817,Continuous,2022.1.1,36.41701708811619,
9,0,9,0,2,0,2,0,,,,,,,,2.712056578960421,both,,,,1,55,[],0.007542066654423252,0.2051245666516479,None,321.09389550000196,321.09389550000196,0.2051245666516479,2.917181145612069,321.2986197999853,321.09389550000196,,,,,qmbami,001,fr,0,2022-04-27_14h42.41.817,Continuous,2022.1.1,36.41701708811619,
9,0,9,0,3,0,3,0,,,,,,,,2.712056578960421,both,194.0,5.4137930844537125,0.0005358168200569408,0,56,[],0.008161066652974114,None,None,324.01228389999596,324.01228389999596,0.20553936666692607,2.917595945627347,324.22225640001125,324.01228389999596,,,,,qmbami,001,fr,0,2022-04-27_14h42.41.817,Continuous,2022.1.1,36.41701708811619,
9,0,9,0,4,0,4,0,,,,,,,,2.712056578960421,both,218.0,7.0,0.0005153016704596879,0,57,[],0.003787466645007953,0.1963569666550029,None,326.936652400007,326.936652400007,0.1963569666550029,2.908413545615424,327.1488977999834,326.936652400007,,,,,qmbami,001,fr,0,2022-04-27_14h42.41.817,Continuous,2022.1.1,36.41701708811619,
9,0,9,0,5,0,5,0,,,,,,,,2.712056578960421,both,245.0,1.8791586632426007,0.0002200971492976248,0,58,[],0.0033263666555285454,0.19547686667647213,None,329.8576469999971,329.8576469999971,0.19547686667647213,2.907533445636893,330.06862179999007,329.8576469999971,,,,,qmbami,001,fr,0,2022-04-27_14h42.41.817,Continuous,2022.1.1,36.41701708811619,
9,0,9,0,6,0,6,0,,,,,,,,2.712056578960421,both,275.0,6.797316950722833,0.00030837363903798347,0,59,[],0.002869466639822349,0.19549696662579663,None,332.7768572999921,332.7768572999921,0.19549696662579663,2.9075535455862176,332.9884790999931,332.7768572999921,,,,,qmbami,001,fr,0,2022-04-27_14h42.41.817,Continuous,2022.1.1,36.41701708811619,
9,0,9,0,7,0,7,0,,,,,,,,2.712056578960421,both,309.0,4.777801781791451,0.0001819645089926682,0,60,[],0.002634366654092446,0.1927753666532226,None,335.69800080001005,335.69800080001005,0.1927753666532226,2.9048319456136436,335.9075373999949,335.69800080001005,,,,,qmbami,001,fr,0,2022-04-27_14h42.41.817,Continuous,2022.1.1,36.41701708811619,
9,0,9,0,8,0,8,0,,,,,,,,2.712056578960421,both,347.0,0.576926749466578,9.65160919642233e-05,0,61,[],0.016397833300288767,None,None,338.62164239998674,338.62164239998674,0.23522963331197388,2.947286212272395,338.84972150000976,338.62164239998674,,,,,qmbami,001,fr,0,2022-04-27_14h42.41.817,Continuous,2022.1.1,36.41701708811619,
9,0,9,0,9,0,9,0,,,,,,,,2.712056578960421,both,389.0,2.281291674427944,0.00010326191458549622,0,62,[],0.00701196669251658,None,None,341.55979769999976,341.55979769999976,0.20640396667295136,2.9184605456333723,341.7737555000058,341.55979769999976,,,,,qmbami,001,fr,0,2022-04-27_14h42.41.817,Continuous,2022.1.1,36.41701708811619,
,,,,,,,,,,,,,,,2.712056578960421,both,437.0,1.4207622869279257,8.793224569631212e-05,0,63,[],,,,,,,,,,,,,,,,,,,,,,
