sweeps.thisRepN,sweeps.thisTrialN,sweeps.thisN,sweeps.thisIndex,trials.thisRepN,trials.thisTrialN,trials.thisN,trials.thisIndex,instructions.started,instructions.stopped,blank_text.started,blank_text.stopped,,text.started,text.stopped,Delay,Prediction,Frequency,Volume,Psychopy_level,isCatchTrial,len(y),finished_audiograms,probe.started,probe.stopped,feedback.keys,feedback.started,feedback.stopped,ISI.started,ISI.stopped,text_2.started,text_2.stopped,feedback.rt,break_txt.started,break_txt.stopped,Intervals,Audiogram_none,Audiogram_frequency,Audiogram_time,Audiogram_both,participant,session,language (english or french),Resume previous experiment,date,expName,psychopyVersion,frameRate,
0,0,0,0,0,0,0,0,20.151540599996224,None,65.56665039993823,None,0.3333333333333333,67.59858949994668,None,2.411374886598414,frequency,1416.0,2.0132065058190687,6.353124237435655e-05,0,25,[],0.018954599858261645,None,None,68.62721629999578,None,0.2231342998566106,2.6345091864550247,68.84953499992844,None,,,,,,,,,tlvjds,001,fr,0,2022-05-06_11h41.50.914,Continuous,2022.1.1,34.897472970645104,
0,0,0,0,1,0,1,0,,,,,,,,2.4136434839440506,frequency,1124.0,2.3276615360955377,6.437131229025814e-05,0,26,[],0.020180599996820092,None,None,71.25879919994622,71.25879919994622,0.21756110002752393,2.6312045839715745,71.4754197000293,71.25879919994622,,,,,,,,,tlvjds,001,fr,0,2022-05-06_11h41.50.914,Continuous,2022.1.1,34.897472970645104,
0,0,0,0,2,0,2,0,,,,,,,,1.987395061716665,frequency,892.0,2.0670870641841326,5.1994436176281654e-05,0,27,[],0.02374130010139197,None,"['space', 'space']",73.88944509997964,73.88944509997964,0.2291880000848323,2.2165830618014972,74.09610159997828,73.88944509997964,"[-2.1584438000572845, 0.16149480000603944]",,,,,,,,tlvjds,001,fr,0,2022-05-06_11h41.50.914,Continuous,2022.1.1,34.897472970645104,
0,0,0,0,3,0,3,0,,,,,,,,2.458304682060393,frequency,708.0,2.595406408514957,5.976065282106188e-05,0,28,[],0.01703280000947416,None,None,76.08282060001511,76.08282060001511,0.2113664000062272,2.6696710820666203,76.29687570000533,76.08282060001511,,,,,,,,,tlvjds,001,fr,0,2022-05-06_11h41.50.914,Continuous,2022.1.1,34.897472970645104,
0,0,0,0,4,0,4,0,,,,,,,,1.8220566212070148,frequency,562.0,2.325823351864706,8.073978250590052e-05,0,29,[],0.023206599988043308,None,['space'],78.75487629999407,78.75487629999407,0.23803669994231313,2.0600933211493277,78.97717870003544,78.75487629999407,[-2.288558100000955],,,,,,,,tlvjds,001,fr,0,2022-05-06_11h41.50.914,Continuous,2022.1.1,34.897472970645104,
0,0,0,0,5,0,5,0,,,,,,,,2.9184675788711583,frequency,446.0,1.3688285756097356,8.686969406084822e-05,0,30,[],0.013735199929215014,0.19886219990439713,['space'],80.79573409992736,80.79573409992736,0.19886219990439713,3.1173297787755554,80.99488439993002,80.79573409992736,[-1.6409059999277815],,,,,,,,tlvjds,001,fr,0,2022-05-06_11h41.50.914,Continuous,2022.1.1,34.897472970645104,
0,0,0,0,6,0,6,0,,,,,,,,1.0433592937946494,frequency,354.0,2.0,0.00011141034968120162,0,31,[],0.023296700092032552,None,['space'],83.91364719998091,83.91364719998091,0.22689470008481294,1.2702539938794624,84.13114269997459,83.91364719998091,[-2.7909398999763653],,,,,,,,tlvjds,001,fr,0,2022-05-06_11h41.50.914,Continuous,2022.1.1,34.897472970645104,
0,0,0,0,7,0,7,0,,,,,,,,2.932000951782605,frequency,281.0,1.6375709588342957,0.00016257584157385263,0,32,[],0.023466600105166435,None,['space'],85.17268019996118,85.17268019996118,0.22822960012126714,3.1602305519038723,85.37676489993464,85.17268019996118,[-0.897560799960047],,,,,,,,tlvjds,001,fr,0,2022-05-06_11h41.50.914,Continuous,2022.1.1,34.897472970645104,
0,0,0,0,8,0,8,0,,,,,,,,1.920666994240681,frequency,223.0,4.3515124570985275,0.00036370517335028695,0,33,[],0.023322400054894388,None,['space'],88.30901480000466,88.30901480000466,0.22512059996370226,2.1457875942043834,88.51459439995233,88.30901480000466,[-0.14626129996031523],,,,,,,,tlvjds,001,fr,0,2022-05-06_11h41.50.914,Continuous,2022.1.1,34.897472970645104,
0,0,0,0,9,0,9,0,,,,,,,,1.6152292237305697,frequency,177.0,3.685452754386226,0.0005337728215896945,0,34,[],0.023221699986606836,None,None,90.43750480003655,90.43750480003655,0.22473439993336797,1.8399636236639376,90.65108500001952,90.43750480003655,,,,,,,,,tlvjds,001,fr,0,2022-05-06_11h41.50.914,Continuous,2022.1.1,34.897472970645104,
0,0,0,0,10,0,10,0,,,,,,,,1.7931799529207395,frequency,,,,1,34,[],0.02269530005287379,None,None,92.26338979997672,92.26338979997672,0.22320550004951656,2.016385452970256,92.47556179994717,92.26338979997672,,,,,,,,,tlvjds,001,fr,0,2022-05-06_11h41.50.914,Continuous,2022.1.1,34.897472970645104,
1,0,1,0,0,0,0,0,,,,,0.3333333333333333,97.46967270004097,None,1.4970620305001243,both,1416.0,2.146103947461085,6.451076919961869e-05,0,25,[],0.024300400051288307,None,None,98.47796129994094,None,0.24269820004701614,1.7397602305471405,98.70469099993352,None,,94.26703620003536,None,,,,,,tlvjds,001,fr,0,2022-05-06_11h41.50.914,Continuous,2022.1.1,34.897472970645104,
1,0,1,0,1,0,1,0,,,,,,,,1.4970620305001243,both,1124.0,2.2181021164875503,6.356446439149756e-05,0,26,[],0.0218340998981148,None,None,100.19011770002544,100.19011770002544,0.226146399974823,1.7232084304749473,100.4059341000393,100.19011770002544,,,,,,,,,tlvjds,001,fr,0,2022-05-06_11h41.50.914,Continuous,2022.1.1,34.897472970645104,
1,0,1,0,2,0,2,0,,,,,,,,1.4970620305001243,both,892.0,2.531003446766834,5.4846976579771494e-05,0,27,[],0.02310580003540963,None,None,101.9011624000268,101.9011624000268,0.22578100010287017,1.7228430306029945,102.11645870003849,101.9011624000268,,,,,,,,,tlvjds,001,fr,0,2022-05-06_11h41.50.914,Continuous,2022.1.1,34.897472970645104,
1,0,1,0,3,0,3,0,,,,,,,,1.4970620305001243,both,708.0,2.4412681540374175,5.870950521680919e-05,0,28,[],0.022991500096395612,None,['space'],103.61381639994215,103.61381639994215,0.2273534000851214,1.7244154305852457,103.82983229996171,103.61381639994215,[-1.2115545999258757],,,,,,,,tlvjds,001,fr,0,2022-05-06_11h41.50.914,Continuous,2022.1.1,34.897472970645104,
1,0,1,0,4,0,4,0,,,,,,,,1.4970620305001243,both,,,,1,28,[],0.014887899975292385,0.2013398000271991,['space'],105.32874999998603,105.32874999998603,0.2013398000271991,1.6984018305273234,105.53235350002069,105.32874999998603,[-1.3574789999984205],,,,,,,,tlvjds,001,fr,0,2022-05-06_11h41.50.914,Continuous,2022.1.1,34.897472970645104,
1,0,1,0,5,0,5,0,,,,,,,,1.4970620305001243,both,446.0,1.8991486126576946,9.233881435956284e-05,0,29,[],0.023981899954378605,None,None,107.02359370002523,107.02359370002523,0.22320839995518327,1.7202704304553076,107.23627230001148,107.02359370002523,,,,,,,,,tlvjds,001,fr,0,2022-05-06_11h41.50.914,Continuous,2022.1.1,34.897472970645104,
1,0,1,0,6,0,6,0,,,,,,,,1.4970620305001243,both,354.0,2.0,0.00011141034968120162,0,30,[],0.02240060002077371,None,['space'],108.73133169999346,108.73133169999346,0.22234159999061376,1.719403630490738,108.94387169997208,108.73133169999346,[-1.4161637000506744],,,,,,,,tlvjds,001,fr,0,2022-05-06_11h41.50.914,Continuous,2022.1.1,34.897472970645104,
1,0,1,0,7,0,7,0,,,,,,,,1.4970620305001243,both,281.0,1.8587799902132836,0.00016676943690865388,0,31,[],0.022677699918858707,None,['space'],110.44198609993327,110.44198609993327,0.22577019990421832,1.7228322304043426,110.65770320000593,110.44198609993327,[-1.286719199968502],,,,,,,,tlvjds,001,fr,0,2022-05-06_11h41.50.914,Continuous,2022.1.1,34.897472970645104,
1,0,1,0,8,0,8,0,,,,,,,,1.4970620305001243,both,223.0,4.557619410723171,0.0003724387206873435,0,32,[],0.020270800101570785,None,"['space', 'space']",112.15196349995676,112.15196349995676,0.2192909000441432,1.7163529305442675,112.37334509997163,112.15196349995676,"[-1.4286550999386236, 0.02664520009420812]",,,,,,,,tlvjds,001,fr,0,2022-05-06_11h41.50.914,Continuous,2022.1.1,34.897472970645104,
1,0,1,0,9,0,9,0,,,,,,,,1.4970620305001243,both,177.0,7.490388433282703,0.0008271861243763188,0,33,[],0.0224483001511544,None,None,113.86370019998867,113.86370019998867,0.22313710011076182,1.7201991306108861,114.07534720003605,113.86370019998867,,,,,,,,,tlvjds,001,fr,0,2022-05-06_11h41.50.914,Continuous,2022.1.1,34.897472970645104,
1,0,1,0,10,0,10,0,,,,,,,,1.4970620305001243,both,140.0,5.903938726752099,0.0011626344748286157,0,34,[],0.021928699919953942,None,"['space', 'space']",115.57155580003746,115.57155580003746,0.21936969994567335,1.7164317304457977,115.78266180003993,115.57155580003746,"[-1.4408481999998912, 0.20807809999678284]",,,,,,,,tlvjds,001,fr,0,2022-05-06_11h41.50.914,Continuous,2022.1.1,34.897472970645104,
2,0,2,0,0,0,0,0,,,,,,118.8164840999525,None,1.7044689102786619,none,795.0,2.4164385219266684,5.0975053816757846e-05,0,25,[],0.02407620009034872,None,None,119.83792520000134,None,0.23557780007831752,1.9400467103569794,120.05418640002608,None,,117.2799891999457,None,"[0.5833333333333334, 0.16666666666666666, 0.3333333333333333, 0.5833333333333334, 0.16666666666666666, 0.5833333333333334, 0.16666666666666666, 0.16666666666666666, 0.16666666666666666, 0.16666666666666666, 0.16666666666666666, 0.16666666666666666, 0.16666666666666666, 0.3333333333333333, 0.16666666666666666]",,,,,tlvjds,001,fr,0,2022-05-06_11h41.50.914,Continuous,2022.1.1,34.897472970645104,
2,0,2,0,1,0,1,0,,,,,,,,1.8859223404715655,none,354.0,2.0,0.00011141034968120162,0,26,[],0.018508799956180155,None,None,121.7461428999668,121.7461428999668,0.21618969994597137,2.102112040417537,121.96597839996684,121.7461428999668,,,,,,,,,tlvjds,001,fr,0,2022-05-06_11h41.50.914,Continuous,2022.1.1,34.897472970645104,
2,0,2,0,2,0,2,0,,,,,,,,2.336074613745472,none,250.0,2.5290598231943813,0.00022409026773927016,0,27,[],0.01569020003080368,0.20906760008074343,['space'],123.85140169993974,123.85140169993974,0.20906760008074343,2.5451422138262156,124.06372440000996,123.85140169993974,[-1.737094199983403],,,,,,,,tlvjds,001,fr,0,2022-05-06_11h41.50.914,Continuous,2022.1.1,34.897472970645104,
2,0,2,0,3,0,3,0,,,,,,,,1.9179567198529892,none,281.0,1.6573727026942466,0.0001629468982756935,0,28,[],0.020218199933879077,None,['space'],126.39990209997632,126.39990209997632,0.21768290002364665,2.1356396198766356,126.61161769996397,126.39990209997632,[-2.124848699895665],,,,,,,,tlvjds,001,fr,0,2022-05-06_11h41.50.914,Continuous,2022.1.1,34.897472970645104,
2,0,2,0,4,0,4,0,,,,,,,,1.9738540677398893,none,315.0,0.9926441179293326,0.00011056106417515449,0,29,[],0.02239340008236468,None,['space'],128.53012130002026,128.53012130002026,0.227374600013718,2.2012286677536075,128.7436303999275,128.53012130002026,[-1.8552542000543326],,,,,,,,tlvjds,001,fr,0,2022-05-06_11h41.50.914,Continuous,2022.1.1,34.897472970645104,
2,0,2,0,5,0,5,0,,,,,,,,1.6076619242202241,none,708.0,2.1780019311553946,5.695673807067512e-05,0,30,[],0.022256600088439882,None,"['space', 'space']",130.7190464999294,130.7190464999294,0.22598850005306304,1.8336504242732872,130.9313202999765,130.7190464999294,"[-1.8841370000736788, 0.13148109999019653]",,,,,,,,tlvjds,001,fr,0,2022-05-06_11h41.50.914,Continuous,2022.1.1,34.897472970645104,
2,0,2,0,6,0,6,0,,,,,,,,1.8343773597458908,none,446.0,1.4308828017738713,8.749253568497418e-05,0,31,[],0.02144619997125119,None,None,132.53941680002026,132.53941680002026,0.22145730000920594,2.0558346597550967,132.75570460001472,132.53941680002026,,,,,,,,,tlvjds,001,fr,0,2022-05-06_11h41.50.914,Continuous,2022.1.1,34.897472970645104,
2,0,2,0,7,0,7,0,,,,,,,,1.6371128021207395,none,149.0,2.0082293283202297,0.000641466338556714,0,32,[],0.021562500041909516,None,['space'],134.58960479998495,134.58960479998495,0.22585669998079538,1.862969502101535,134.8041803999804,134.58960479998495,[-1.7062992000719532],,,,,,,,tlvjds,001,fr,0,2022-05-06_11h41.50.914,Continuous,2022.1.1,34.897472970645104,
2,0,2,0,8,0,8,0,,,,,,,,1.2795844808321073,none,167.0,8.00761883188174,0.0009695024662418254,0,33,[],0.021988100023008883,None,['space'],136.44233889994211,136.44233889994211,0.22344530001282692,1.5030297808449342,136.65164149994962,136.44233889994211,[-1.3191912999609485],,,,,,,,tlvjds,001,fr,0,2022-05-06_11h41.50.914,Continuous,2022.1.1,34.897472970645104,
2,0,2,0,9,0,9,0,,,,,,,,1.165767629332542,none,397.0,1.1271700563909597,8.804901145731745e-05,0,34,[],0.014459999976679683,None,['space'],137.9354425999336,137.9354425999336,0.210268700029701,1.376036329362243,138.1525020999834,137.9354425999336,[-1.1647216000128537],,,,,,,,tlvjds,001,fr,0,2022-05-06_11h41.50.914,Continuous,2022.1.1,34.897472970645104,
2,0,2,0,10,0,10,0,,,,,,,,1.542492527787826,none,501.0,2.0137910426018784,8.98897623710775e-05,0,35,[],0.014837600057944655,None,['space'],139.3193116999464,139.3193116999464,0.20655370003078133,1.7490462278186074,139.53478270000778,139.3193116999464,[-0.9009504999266937],,,,,,,,tlvjds,001,fr,0,2022-05-06_11h41.50.914,Continuous,2022.1.1,34.897472970645104,
2,0,2,0,11,0,11,0,,,,,,,,1.7652058770765764,none,,,,1,35,[],0.02133039990440011,None,['space'],141.07656349998433,141.07656349998433,0.22727799997664988,1.9924838770532263,141.29314680001698,141.07656349998433,[-1.3935502000385895],,,,,,,,tlvjds,001,fr,0,2022-05-06_11h41.50.914,Continuous,2022.1.1,34.897472970645104,
2,0,2,0,12,0,12,0,,,,,,,,2.0347202853514723,none,562.0,2.2542503256280924,8.00772082589898e-05,0,36,[],0.022715300088748336,None,['space'],143.05694549996406,143.05694549996406,0.22865900001488626,2.2633792853663586,143.2696142999921,143.05694549996406,[-1.0852540000341833],,,,,,,,tlvjds,001,fr,0,2022-05-06_11h41.50.914,Continuous,2022.1.1,34.897472970645104,
3,0,3,0,0,0,0,0,,,,,,149.02612449997105,None,2.689935901490701,time,501.0,2.0573724888547025,9.034191759766531e-05,0,25,[],0.02426699991337955,None,None,150.03119659994263,None,0.2335012999828905,2.9234372014735914,150.24515570001677,None,,145.3038395999465,None,"[0.16666666666666666, 0.16666666666666666, 0.3333333333333333, 0.5833333333333334, 0.5833333333333334, 0.16666666666666666, 0.3333333333333333, 0.3333333333333333, 0.3333333333333333, 0.16666666666666666, 0.16666666666666666, 0.16666666666666666, 0.16666666666666666, 0.5833333333333334, 0.3333333333333333]",,,,,tlvjds,001,fr,0,2022-05-06_11h41.50.914,Continuous,2022.1.1,34.897472970645104,
3,0,3,0,1,0,1,0,,,,,,,,2.689935901490701,time,281.0,1.3429558876332863,0.00015715393405891828,0,26,[],0.015181399998255074,0.2072492999723181,None,152.93314320000354,152.93314320000354,0.2072492999723181,2.897185201463019,153.1479114999529,152.93314320000354,,,,,,,,,tlvjds,001,fr,0,2022-05-06_11h41.50.914,Continuous,2022.1.1,34.897472970645104,
3,0,3,0,2,0,2,0,,,,,,,,2.689935901490701,time,397.0,1.7964384816707404,9.510161797196732e-05,0,27,[],0.019615500001236796,None,['space'],155.83074300002772,155.83074300002772,0.22008220001589507,2.910018101506596,156.04622859996744,155.83074300002772,[-2.4032546000089496],,,,,,,,tlvjds,001,fr,0,2022-05-06_11h41.50.914,Continuous,2022.1.1,34.897472970645104,
3,0,3,0,3,0,3,0,,,,,,,,2.689935901490701,time,842.0,2.4944036923908017,5.272251752573691e-05,0,28,[],0.021577500039711595,None,['space'],158.73237989994232,158.73237989994232,0.22450320003554225,2.914439101526243,158.9425386999501,158.73237989994232,[-2.5698200999759138],,,,,,,,tlvjds,001,fr,0,2022-05-06_11h41.50.914,Continuous,2022.1.1,34.897472970645104,
3,0,3,0,4,0,4,0,,,,,,,,2.689935901490701,time,223.0,3.5565861540682557,0.00033189687505028265,0,29,[],0.02120630000717938,None,['space'],161.63174670003355,161.63174670003355,0.22423819999676198,2.914174101487463,161.8424509000033,161.63174670003355,[-2.5566651999251917],,,,,,,,tlvjds,001,fr,0,2022-05-06_11h41.50.914,Continuous,2022.1.1,34.897472970645104,
3,0,3,0,5,0,5,0,,,,,,,,2.689935901490701,time,1061.0,2.567571064628641,6.263265159318543e-05,0,30,[],0.021571200108155608,None,['space'],164.53343840001617,164.53343840001617,0.23378920007962734,2.9237251015703283,164.75432209996507,164.53343840001617,[-2.6430563000030816],,,,,,,,tlvjds,001,fr,0,2022-05-06_11h41.50.914,Continuous,2022.1.1,34.897472970645104,
3,0,3,0,6,0,6,0,,,,,,,,2.689935901490701,time,446.0,1.8265814675196315,9.157057401758155e-05,0,31,[],0.021479800110682845,None,['space'],167.43555059994105,167.43555059994105,0.22567550011444837,2.9156114016051493,167.64781430002768,167.43555059994105,[-2.552338699926622],,,,,,,,tlvjds,001,fr,0,2022-05-06_11h41.50.914,Continuous,2022.1.1,34.897472970645104,
3,0,3,0,7,0,7,0,,,,,,,,2.689935901490701,time,562.0,2.3013460520628257,8.051257379031625e-05,0,32,[],0.016517699928954244,0.21198959997855127,['space'],170.3312852999661,170.3312852999661,0.21198959997855127,2.901925501469252,170.54570240003522,170.3312852999661,[-2.5848600000608712],,,,,,,,tlvjds,001,fr,0,2022-05-06_11h41.50.914,Continuous,2022.1.1,34.897472970645104,
3,0,3,0,8,0,8,0,,,,,,,,2.689935901490701,time,158.0,2.723819059700883,0.0005869137639051594,0,33,[],0.021323299850337207,None,"['space', 'space']",173.2319576999871,173.2319576999871,0.23185449989978224,2.921790401390483,173.44773140002508,173.2319576999871,"[-2.621174299973063, -0.7012916000094265]",,,,,,,,tlvjds,001,fr,0,2022-05-06_11h41.50.914,Continuous,2022.1.1,34.897472970645104,
3,0,3,0,9,0,9,0,,,,,,,,2.689935901490701,time,,,,1,33,[],0.021645900094881654,None,['space'],176.1307523000287,176.1307523000287,0.23530400008894503,2.925239901579646,176.35348809999414,176.1307523000287,[-2.336155099910684],,,,,,,,tlvjds,001,fr,0,2022-05-06_11h41.50.914,Continuous,2022.1.1,34.897472970645104,
3,0,3,0,10,0,10,0,,,,,,,,2.689935901490701,time,354.0,2.0,0.00011141034968120162,0,34,[],0.022624999983236194,None,None,179.03308379999362,179.03308379999362,0.22823170002084225,2.918167601511543,179.25580599997193,179.03308379999362,,,,,,,,,tlvjds,001,fr,0,2022-05-06_11h41.50.914,Continuous,2022.1.1,34.897472970645104,
4,0,4,0,0,0,0,0,,,,,,185.02422329992987,None,2.099537825913954,time,210.0,5.145544140976136,0.000444578020494184,0,35,[],0.023932800046168268,None,None,186.03592059994116,None,0.2604042000602931,2.359942025974247,186.272716699983,None,,181.93992639996577,None,"[0.16666666666666666, 0.3333333333333333, 0.3333333333333333, 0.16666666666666666, 0.5833333333333334, 0.3333333333333333, 0.3333333333333333, 0.16666666666666666, 0.5833333333333334, 0.16666666666666666, 0.5833333333333334, 0.5833333333333334, 0.3333333333333333, 0.3333333333333333, 0.16666666666666666]",,,,,tlvjds,001,fr,0,2022-05-06_11h41.50.914,Continuous,2022.1.1,34.897472970645104,
4,0,4,0,1,0,1,0,,,,,,,,2.099537825913954,time,561.0,3.821630075210974,9.615531472346344e-05,0,36,[],0.016781499958597124,0.21281589998397976,None,188.36698209994938,188.36698209994938,0.21281589998397976,2.3123537258979336,188.5813960999949,188.36698209994938,,,,,,,,,tlvjds,001,fr,0,2022-05-06_11h41.50.914,Continuous,2022.1.1,34.897472970645104,
4,0,4,0,2,0,2,0,,,,,,,,2.099537825913954,time,125.0,7.0,0.0016179682846481417,0,37,[],0.02145349991042167,None,None,190.68327479995787,190.68327479995787,0.22228429990354925,2.321822125817503,190.89384309994057,190.68327479995787,,,,,,,,,tlvjds,001,fr,0,2022-05-06_11h41.50.914,Continuous,2022.1.1,34.897472970645104,
4,0,4,0,3,0,3,0,,,,,,,,2.099537825913954,time,,,,1,37,[],0.020046700024977326,None,None,192.98640349996276,192.98640349996276,0.2183595000533387,2.3178973259672926,193.20520189998206,192.98640349996276,,,,,,,,,tlvjds,001,fr,0,2022-05-06_11h41.50.914,Continuous,2022.1.1,34.897472970645104,
4,0,4,0,4,0,4,0,,,,,,,,2.099537825913954,time,315.0,2.41472289592576,0.00013022853323757386,0,38,[],0.022438600077293813,None,None,195.29989779996686,195.29989779996686,0.22795550001319498,2.327493325927149,195.51368109998293,195.29989779996686,,,,,,,,,tlvjds,001,fr,0,2022-05-06_11h41.50.914,Continuous,2022.1.1,34.897472970645104,
4,0,4,0,5,0,5,0,,,,,,,,2.099537825913954,time,500.0,5.930076074154506,0.00014140794404873087,0,39,[],0.020356499939225614,None,['space'],197.60861659992952,197.60861659992952,0.21900609997101128,2.318543925884965,197.81559340003878,197.60861659992952,[-1.8602857999503613],,,,,,,,tlvjds,001,fr,0,2022-05-06_11h41.50.914,Continuous,2022.1.1,34.897472970645104,
4,0,4,0,6,0,6,0,,,,,,,,2.099537825913954,time,397.0,6.95181155968794,0.0001721696353282369,0,40,[],0.01453729986678809,0.20701709995046258,['space'],199.9174917000346,199.9174917000346,0.20701709995046258,2.3065549258644165,200.13144959998317,199.9174917000346,[-1.995089799980633],,,,,,,,tlvjds,001,fr,0,2022-05-06_11h41.50.914,Continuous,2022.1.1,34.897472970645104,
4,0,4,0,7,0,7,0,,,,,,,,2.099537825913954,time,140.0,8.877263342903323,0.001637228995583158,0,41,[],0.019955100025981665,0.21968859992921352,['space'],202.23068299994338,202.23068299994338,0.21968859992921352,2.3192264258431674,202.44077230000403,202.23068299994338,[-1.9877874999074265],,,,,,,,tlvjds,001,fr,0,2022-05-06_11h41.50.914,Continuous,2022.1.1,34.897472970645104,
5,0,5,0,0,0,0,0,,,,,,207.49728739995044,None,2.6422121084026964,none,,,,1,36,[],0.021859799977391958,None,None,208.52463649993297,None,0.22855130000971258,2.870763408412409,208.74594249995425,None,,204.5358009999618,None,"[0.3333333333333333, 0.16666666666666666, 0.16666666666666666, 0.5833333333333334, 0.16666666666666666, 0.16666666666666666, 0.3333333333333333, 0.16666666666666666, 0.5833333333333334, 0.5833333333333334, 0.3333333333333333, 0.5833333333333334, 0.16666666666666666, 0.5833333333333334, 0.3333333333333333]",,,,,tlvjds,001,fr,0,2022-05-06_11h41.50.914,Continuous,2022.1.1,34.897472970645104,
5,0,5,0,1,0,1,0,,,,,,,,1.2557899603343587,none,125.0,6.0,0.0014420157515633036,0,37,[],0.021404400118626654,None,None,211.37987339997198,211.37987339997198,0.2244567001471296,1.4802466604814883,211.59547399997246,211.37987339997198,,,,,,,,,tlvjds,001,fr,0,2022-05-06_11h41.50.914,Continuous,2022.1.1,34.897472970645104,
5,0,5,0,2,0,2,0,,,,,,,,1.4327999136229286,none,397.0,5.817199699936218,0.0001510866064378416,0,38,[],0.020747300004586577,None,None,212.8537842000369,212.8537842000369,0.22554520005360246,1.658345113676531,213.06826229998842,212.8537842000369,,,,,,,,,tlvjds,001,fr,0,2022-05-06_11h41.50.914,Continuous,2022.1.1,34.897472970645104,
5,0,5,0,3,0,3,0,,,,,,,,2.870228638900133,none,210.0,5.411188907819664,0.00045838481911170164,0,39,[],0.02068750001490116,None,['space'],214.5011383999372,214.5011383999372,0.22202870005276054,3.0922573389528933,214.71528160001617,214.5011383999372,[-1.3147125999676064],,,,,,,,tlvjds,001,fr,0,2022-05-06_11h41.50.914,Continuous,2022.1.1,34.897472970645104,
5,0,5,0,4,0,4,0,,,,,,,,1.0400894979464683,none,668.0,5.369424062327779,8.875497647627768e-05,0,40,[],0.02048750000540167,None,None,217.58850910002366,217.58850910002366,0.22842240007594228,1.2685118980224106,217.7962273999583,217.58850910002366,,,,,,,,,tlvjds,001,fr,0,2022-05-06_11h41.50.914,Continuous,2022.1.1,34.897472970645104,
5,0,5,0,5,0,5,0,,,,,,,,2.870282545840041,none,315.0,1.0648991915787647,0.00011148462154949063,0,41,[],0.020619300077669322,None,['space'],218.84048190002795,218.84048190002795,0.22440270008519292,3.094685245925234,219.0590610000072,218.84048190002795,[-0.9012505999999121],,,,,,,,tlvjds,001,fr,0,2022-05-06_11h41.50.914,Continuous,2022.1.1,34.897472970645104,
5,0,5,0,6,0,6,0,,,,,,,,1.4319791549203498,none,595.0,4.900762988892332,9.955057592558905e-05,0,42,[],0.017796600121073425,None,None,221.91771509998944,221.91771509998944,0.2169853001832962,1.648964455103646,222.1349052999867,221.91771509998944,,,,,,,,,tlvjds,001,fr,0,2022-05-06_11h41.50.914,Continuous,2022.1.1,34.897472970645104,
5,0,5,0,7,0,7,0,,,,,,,,1.769591709790784,none,1001.0,3.7886601361978345,6.820483639373187e-05,0,43,[],0.017769099911674857,None,['space'],223.56977359997109,223.56977359997109,0.21582189993932843,1.9854136097301125,223.78912760003004,223.56977359997109,[-1.358029399998486],,,,,,,,tlvjds,001,fr,0,2022-05-06_11h41.50.914,Continuous,2022.1.1,34.897472970645104,
5,0,5,0,8,0,8,0,,,,,,,,1.333333440971412,none,1261.0,3.6896467041224623,8.294133733755503e-05,0,44,[],0.018522099941037595,None,None,225.55401259998325,225.55401259998325,0.2157353999791667,1.5490688409505786,225.77089569997042,225.55401259998325,,,,,,,,,tlvjds,001,fr,0,2022-05-06_11h41.50.914,Continuous,2022.1.1,34.897472970645104,
5,0,5,0,9,0,9,0,,,,,,,,1.2827249179347224,none,140.0,8.375252659359136,0.001545286082890232,0,45,[],0.02020889986306429,None,['space'],227.10045309993438,227.10045309993438,0.22317849996034056,1.505903417895063,227.31511670001782,227.10045309993438,[-1.2258121999911964],,,,,,,,tlvjds,001,fr,0,2022-05-06_11h41.50.914,Continuous,2022.1.1,34.897472970645104,
6,0,6,0,0,0,0,0,,,,,,233.1388943999773,None,2.4620271186921263,time,1382.0,1.4985484235451358,6.08792867383665e-05,0,42,[],0.02442569995764643,None,None,234.14791659999173,None,0.23398600006476045,2.6960131187568868,234.36402939993422,None,,228.6022096000379,None,"[0.5833333333333334, 0.5833333333333334, 0.16666666666666666, 0.3333333333333333, 0.5833333333333334, 0.5833333333333334, 0.3333333333333333, 0.3333333333333333, 0.5833333333333334, 0.16666666666666666, 0.5833333333333334, 0.16666666666666666, 0.3333333333333333, 0.16666666666666666, 0.3333333333333333]",,,,,tlvjds,001,fr,0,2022-05-06_11h41.50.914,Continuous,2022.1.1,34.897472970645104,
6,0,6,0,1,0,1,0,,,,,,,,2.4620271186921263,time,2609.0,-2.160331090622865,6.169923373921443e-05,0,43,[],0.015724700060673058,None,['space'],236.81849330000114,236.81849330000114,0.21095900004729629,2.6729861187394226,237.0354658999713,236.81849330000114,[-2.383847099961713],,,,,,,,tlvjds,001,fr,0,2022-05-06_11h41.50.914,Continuous,2022.1.1,34.897472970645104,
6,0,6,0,2,0,2,0,,,,,,,,2.4620271186921263,time,4925.0,1.0,0.0001655937853633201,0,44,[],0.008823500131256878,None,['space'],239.5073706000112,239.5073706000112,0.21391290007159114,2.6759400187637175,239.72405279998202,239.5073706000112,[-2.2881034000311047],,,,,,,,tlvjds,001,fr,0,2022-05-06_11h41.50.914,Continuous,2022.1.1,34.897472970645104,
6,0,6,0,3,0,3,0,,,,,,,,2.4620271186921263,time,3287.0,-3.5510798470924527,4.7455979144849644e-05,0,45,[],0.019932900089770555,None,['space'],242.18855469999835,242.18855469999835,0.2213793999981135,2.68340651869024,242.40603900002316,242.18855469999835,[-2.394167699967511],,,,,,,,tlvjds,001,fr,0,2022-05-06_11h41.50.914,Continuous,2022.1.1,34.897472970645104,
6,0,6,0,4,0,4,0,,,,,,,,2.4620271186921263,time,,,,1,45,[],0.020193399977870286,None,None,244.86811329994816,244.86811329994816,0.2232437999919057,2.685270918684032,245.09119409997948,244.86811329994816,,,,,,,,,tlvjds,001,fr,0,2022-05-06_11h41.50.914,Continuous,2022.1.1,34.897472970645104,
6,0,6,0,5,0,5,0,,,,,,,,2.4620271186921263,time,652.0,2.5499862146994237,6.603540895036096e-05,0,46,[],0.01761190011166036,None,['space'],247.54564339993522,247.54564339993522,0.21395320014562458,2.675980318837751,247.7676647999324,247.54564339993522,[-0.6630952999694273],,,,,,,,tlvjds,001,fr,0,2022-05-06_11h41.50.914,Continuous,2022.1.1,34.897472970645104,
6,0,6,0,6,0,6,0,,,,,,,,2.4620271186921263,time,435.0,1.0785246533761528,8.4650650981084e-05,0,47,[],0.019983000005595386,None,['space'],250.2302051000297,250.2302051000297,0.22227709996514022,2.6843042186572665,250.44607139995787,250.2302051000297,[-2.2596163999987766],,,,,,,,tlvjds,001,fr,0,2022-05-06_11h41.50.914,Continuous,2022.1.1,34.897472970645104,
6,0,6,0,7,0,7,0,,,,,,,,2.4620271186921263,time,922.0,1.7244159605923264,5.10230215523965e-05,0,48,[],0.019482000032439828,None,['space'],252.9108948999783,252.9108948999783,0.22307130007538944,2.6850984187675158,253.1283450999763,252.9108948999783,[-2.348373100045137],,,,,,,,tlvjds,001,fr,0,2022-05-06_11h41.50.914,Continuous,2022.1.1,34.897472970645104,
6,0,6,0,8,0,8,0,,,,,,,,2.4620271186921263,time,5528.0,-5.265114529180391,7.269325707371905e-05,0,49,[],0.01643339986912906,None,['space'],255.58726379997097,255.58726379997097,0.21346439991611987,2.675491518608246,255.80390359996818,255.58726379997097,[-2.2076321999775246],,,,,,,,tlvjds,001,fr,0,2022-05-06_11h41.50.914,Continuous,2022.1.1,34.897472970645104,
6,0,6,0,9,0,9,0,,,,,,,,2.4620271186921263,time,2071.0,-0.8561012731793383,6.921604294360593e-05,0,50,[],0.01618139981292188,0.2086695998441428,['space'],258.3202083000215,258.3202083000215,0.2086695998441428,2.670696718536269,258.5363926999271,258.3202083000215,[-2.3819120000116527],,,,,,,,tlvjds,001,fr,0,2022-05-06_11h41.50.914,Continuous,2022.1.1,34.897472970645104,
7,0,7,0,0,0,0,0,,,,,,265.09373690001667,None,2.4790282505771217,none,1955.0,-0.6178676358031074,6.778257002912557e-05,0,46,[],0.023934700060635805,None,None,266.1012798999436,None,0.2416537000099197,2.7206819505870414,266.3190508999396,None,,261.0007971000159,None,"[0.5833333333333334, 0.16666666666666666, 0.5833333333333334, 0.16666666666666666, 0.3333333333333333, 0.3333333333333333, 0.3333333333333333, 0.16666666666666666, 0.16666666666666666, 0.3333333333333333, 0.5833333333333334, 0.3333333333333333, 0.3333333333333333, 0.16666666666666666, 0.16666666666666666]",,,,,tlvjds,001,fr,0,2022-05-06_11h41.50.914,Continuous,2022.1.1,34.897472970645104,
7,0,7,0,1,0,1,0,,,,,,,,1.1003396400176286,none,3103.0,-0.25778052639736204,6.268315537160893e-05,0,47,[],0.01908879994880408,None,None,268.7950746000279,268.7950746000279,0.22001080005429685,1.3203504400719255,269.0105834000278,268.7950746000279,,,,,,,,,tlvjds,001,fr,0,2022-05-06_11h41.50.914,Continuous,2022.1.1,34.897472970645104,
7,0,7,0,2,0,2,0,,,,,,,,1.715460456221448,none,2463.0,-2.2849419259297004,6.539673057484888e-05,0,48,[],0.015027299872599542,0.20893639989662915,['space'],270.1052499000216,270.1052499000216,0.20893639989662915,1.924396856118077,270.3183341999538,270.1052499000216,[-0.9184532000217587],,,,,,,,tlvjds,001,fr,0,2022-05-06_11h41.50.914,Continuous,2022.1.1,34.897472970645104,
7,0,7,0,3,0,3,0,,,,,,,,1.7836018588979763,none,1742.0,-0.03627960739628966,6.289901289288771e-05,0,49,[],0.019353199866600335,None,['space'],272.029985900037,272.029985900037,0.2209063998889178,2.004508258786894,272.2524163000053,272.029985900037,[-1.402946799993515],,,,,,,,tlvjds,001,fr,0,2022-05-06_11h41.50.914,Continuous,2022.1.1,34.897472970645104,
7,0,7,0,4,0,4,0,,,,,,,,1.7120414226633909,none,4388.0,-3.0691066149662083,7.770421189460416e-05,0,50,[],0.01941210008226335,None,None,274.03168549994007,274.03168549994007,0.22494129999540746,1.9369827226587983,274.2459697999293,274.03168549994007,,,,,,,,,tlvjds,001,fr,0,2022-05-06_11h41.50.914,Continuous,2022.1.1,34.897472970645104,
7,0,7,0,5,0,5,0,,,,,,,,1.8668774246192552,none,,,,1,50,[],0.0198443999979645,None,['space'],275.95329670002684,275.95329670002684,0.22368509997613728,2.0905625245953923,276.1588095999323,275.95329670002684,[-1.423182100057602],,,,,,,,tlvjds,001,fr,0,2022-05-06_11h41.50.914,Continuous,2022.1.1,34.897472970645104,
7,0,7,0,6,0,6,0,,,,,,,,1.1321786303991825,none,3909.0,-4.793526010737333,4.741865285015005e-05,0,51,[],0.01813019998371601,None,None,278.0269559000153,278.0269559000153,0.21719910006504506,1.3493777304642276,278.2426664000377,278.0269559000153,,,,,,,,,tlvjds,001,fr,0,2022-05-06_11h41.50.914,Continuous,2022.1.1,34.897472970645104,
7,0,7,0,7,0,7,0,,,,,,,,1.2435209132144647,none,4925.0,0.0,0.00014758561655417712,0,52,[],0.01918079995084554,None,['space'],279.37713639996946,279.37713639996946,0.22174469998572022,1.465265613200185,279.5939323999919,279.37713639996946,[-0.8302072000224143],,,,,,,,tlvjds,001,fr,0,2022-05-06_11h41.50.914,Continuous,2022.1.1,34.897472970645104,
7,0,7,0,8,0,8,0,,,,,,,,2.099926829411433,none,6205.0,-6.301766059189514,6.076622054338458e-05,0,53,[],0.019497700035572052,None,['space'],280.83968580001965,280.83968580001965,0.2226483999984339,2.3225752294098667,281.06012239994016,280.83968580001965,[-1.1081551000243053],,,,,,,,tlvjds,001,fr,0,2022-05-06_11h41.50.914,Continuous,2022.1.1,34.897472970645104,
7,0,7,0,9,0,9,0,,,,,,,,2.0809894845085704,none,1036.0,1.325897943778282,5.30715345963385e-05,0,54,[],0.012373999925330281,None,None,283.157010099967,283.157010099967,0.20891769987065345,2.289907184379224,283.37189850001596,283.157010099967,,,,,,,,,tlvjds,001,fr,0,2022-05-06_11h41.50.914,Continuous,2022.1.1,34.897472970645104,
8,0,8,0,0,0,0,0,,,,,,289.0360704000341,None,1.8833280060648276,none,357.0,-2.8251226951900597,6.336222291524966e-05,0,55,[],0.01995109999552369,None,None,290.04468579997774,None,0.22197990003041923,2.1053079060952467,290.2689920000266,None,,285.4547688999446,None,"[0.3333333333333333, 0.16666666666666666, 0.16666666666666666, 0.5833333333333334, 0.16666666666666666, 0.16666666666666666, 0.5833333333333334, 0.5833333333333334, 0.3333333333333333, 0.3333333333333333, 0.5833333333333334, 0.16666666666666666, 0.3333333333333333, 0.16666666666666666, 0.5833333333333334]",,,,,tlvjds,001,fr,0,2022-05-06_11h41.50.914,Continuous,2022.1.1,34.897472970645104,
8,0,8,0,1,0,1,0,,,,,,,,2.2255544009269626,none,,,,1,55,[],0.015299199963919818,None,None,292.14399809995666,292.14399809995666,0.21009770000819117,2.4356521009351537,292.3623362999642,292.14399809995666,,,,,,,,,tlvjds,001,fr,0,2022-05-06_11h41.50.914,Continuous,2022.1.1,34.897472970645104,
8,0,8,0,2,0,2,0,,,,,,,,2.5932831972897947,none,401.0,-6.011435835843814,3.829201698450135e-05,0,56,[],0.02042560011614114,None,None,294.58909689995926,294.58909689995926,0.2242201000917703,2.817503297381565,294.8035218999721,294.58909689995926,,,,,,,,,tlvjds,001,fr,0,2022-05-06_11h41.50.914,Continuous,2022.1.1,34.897472970645104,
8,0,8,0,3,0,3,0,,,,,,,,1.5676069674297146,none,238.0,-7.4806531281715465,8.072067677210202e-05,0,57,[],0.010816300055012107,0.2056880999589339,None,297.4002431000117,297.4002431000117,0.2056880999589339,1.7732950673886485,297.61363869998604,297.4002431000117,,,,,,,,,tlvjds,001,fr,0,2022-05-06_11h41.50.914,Continuous,2022.1.1,34.897472970645104,
8,0,8,0,4,0,4,0,,,,,,,,2.5166664116780586,none,505.0,-3.175995023885261,4.902332277672345e-05,0,58,[],0.019227399956434965,None,None,299.1788319000043,299.1788319000043,0.22203910001553595,2.7387055116935946,299.38871440000366,299.1788319000043,,,,,,,,,tlvjds,001,fr,0,2022-05-06_11h41.50.914,Continuous,2022.1.1,34.897472970645104,
8,0,8,0,5,0,5,0,,,,,,,,2.5363317475887195,none,150.0,1.9566121738800835,0.0006265135017192143,0,59,[],0.012423600070178509,0.20747950009535998,['space'],301.9103861999465,301.9103861999465,0.20747950009535998,2.7438112476840795,302.1223436000291,301.9103861999465,[-2.131659199949354],,,,,,,,tlvjds,001,fr,0,2022-05-06_11h41.50.914,Continuous,2022.1.1,34.897472970645104,
8,0,8,0,6,0,6,0,,,,,,,,2.306545630442754,none,850.0,-3.5665764613825885,2.6389795299012164e-05,0,60,[],0.014985400019213557,0.20942029997240752,None,304.65804639994167,304.65804639994167,0.20942029997240752,2.5159659304151614,304.87468110001646,304.65804639994167,,,,,,,,,tlvjds,001,fr,0,2022-05-06_11h41.50.914,Continuous,2022.1.1,34.897472970645104,
8,0,8,0,7,0,7,0,,,,,,,,1.945428087160602,none,189.0,-8.0,0.0001216233232399187,0,61,[],0.015475700027309358,None,['space'],307.175563900033,307.175563900033,0.2104679000331089,2.155895987193711,307.3899349999847,307.175563900033,[-1.8602169000077993],,,,,,,,tlvjds,001,fr,0,2022-05-06_11h41.50.914,Continuous,2022.1.1,34.897472970645104,
9,0,9,0,0,0,0,0,,,,,,336.6613136000233,None,1.3318524064315076,none,,,,1,61,[],0.024009499931707978,None,None,337.6725274999626,None,0.2442255999194458,1.5760780063509534,337.8941705999896,None,,309.33639870001934,None,"[0.5833333333333334, 0.3333333333333333, 0.3333333333333333, 0.3333333333333333, 0.5833333333333334, 0.16666666666666666, 0.16666666666666666, 0.5833333333333334, 0.5833333333333334, 0.5833333333333334, 0.16666666666666666, 0.5833333333333334, 0.16666666666666666, 0.16666666666666666, 0.3333333333333333]",,,,,tlvjds,001,fr,0,2022-05-06_11h41.50.914,Continuous,2022.1.1,34.897472970645104,
9,0,9,0,1,0,1,0,,,,,,,,2.065972882667262,none,2828.0,-2.981240109160999,4.647958347957586e-05,0,62,[],0.010686500114388764,0.19785670016426593,['space'],339.22495770000387,339.22495770000387,0.19785670016426593,2.263829582831528,339.4289021999575,339.22495770000387,[-0.11820530006662011],,,,,,,,tlvjds,001,fr,0,2022-05-06_11h41.50.914,Continuous,2022.1.1,34.897472970645104,
9,0,9,0,2,0,2,0,,,,,,,,1.4459700905514759,none,1189.0,-1.6873730761143348,4.278404573499345e-05,0,63,[],0.01511979999486357,0.20965019997674972,None,341.4962136000395,341.4962136000395,0.20965019997674972,1.6556202905282256,341.7094769999385,341.4962136000395,,,,,,,,,tlvjds,001,fr,0,2022-05-06_11h41.50.914,Continuous,2022.1.1,34.897472970645104,
9,0,9,0,3,0,3,0,,,,,,,,2.9586247049650476,none,3174.0,-3.4645405822965945,4.659999642501634e-05,0,64,[],0.018904500058852136,None,None,343.1603755999822,343.1603755999822,0.21955859998706728,3.178183304952115,343.36753899999894,343.1603755999822,,,,,,,,,tlvjds,001,fr,0,2022-05-06_11h41.50.914,Continuous,2022.1.1,34.897472970645104,
9,0,9,0,4,0,4,0,,,,,,,,1.8111560580725499,none,944.0,1.8144149463916603,5.2324986763500326e-05,0,65,[],0.018988499999977648,None,['space'],346.33261689997744,346.33261689997744,0.22458489995915443,2.0357409580317043,346.54174769995734,346.33261689997744,[-2.7947210000129417],,,,,,,,tlvjds,001,fr,0,2022-05-06_11h41.50.914,Continuous,2022.1.1,34.897472970645104,
9,0,9,0,5,0,5,0,,,,,,,,1.9707018210294582,none,8000.0,-3.0,0.00012851978913844324,0,66,[],0.018170899944379926,None,['space'],348.3503873000154,348.3503873000154,0.2231482999632135,2.1938501209926717,348.571882499964,348.3503873000154,[-1.69108029990457],,,,,,,,tlvjds,001,fr,0,2022-05-06_11h41.50.914,Continuous,2022.1.1,34.897472970645104,
9,0,9,0,6,0,6,0,,,,,,,,1.6152142986004805,none,3563.0,-4.374304560975087,4.609280662393477e-05,0,67,[],0.014622699934989214,None,['space'],350.5385148000205,350.5385148000205,0.20998119993600994,1.8251954985364904,350.75414059998,350.5385148000205,[-1.8476078000385314],,,,,,,,tlvjds,001,fr,0,2022-05-06_11h41.50.914,Continuous,2022.1.1,34.897472970645104,
9,0,9,0,7,0,7,0,,,,,,,,1.0581068445457982,none,1887.0,-1.409353534665532,5.9268533082812175e-05,0,68,[],0.01489760004915297,0.21131929999683052,None,352.3733467999846,352.3733467999846,0.21131929999683052,1.2694261445426287,352.5883290999336,352.3733467999846,,,,,,,,,tlvjds,001,fr,0,2022-05-06_11h41.50.914,Continuous,2022.1.1,34.897472970645104,
9,0,9,0,8,0,8,0,,,,,,,,1.233187550883295,none,5339.0,-5.78336194590543,7.206414429340334e-05,0,69,[],0.011893400107510388,None,['space'],353.64791629998945,353.64791629998945,0.2097790000261739,1.442966550909469,353.86664200003725,353.64791629998945,[-0.8768551000393927],,,,,,,,tlvjds,001,fr,0,2022-05-06_11h41.50.914,Continuous,2022.1.1,34.897472970645104,
10,0,10,0,0,0,0,0,,,,,,357.2045445999829,None,2.021474369189969,time,3999.0,-2.7868833488557283,6.088846210959516e-05,0,51,[],0.02415419986937195,None,['space'],358.2315360000357,None,0.21712899988051504,2.238603369070484,358.4374781999504,None,[-1.8927298999624327],355.10164280002937,None,"[0.3333333333333333, 0.3333333333333333, 0.16666666666666666, 0.3333333333333333, 0.3333333333333333, 0.16666666666666666, 0.16666666666666666, 0.16666666666666666, 0.16666666666666666, 0.3333333333333333, 0.16666666666666666, 0.16666666666666666, 0.3333333333333333, 0.3333333333333333, 0.5833333333333334]",,,,,tlvjds,001,fr,0,2022-05-06_11h41.50.914,Continuous,2022.1.1,34.897472970645104,
10,0,10,0,1,0,1,0,,,,,,,,2.021474369189969,time,3174.0,-1.9983029340281218,5.516933712072828e-05,0,52,[],0.018147600116208196,None,['space'],360.46181989996694,360.46181989996694,0.220456900075078,2.241931269265047,360.67099030001555,360.46181989996694,[-1.659043199964799],,,,,,,,tlvjds,001,fr,0,2022-05-06_11h41.50.914,Continuous,2022.1.1,34.897472970645104,
10,0,10,0,2,0,2,0,,,,,,,,2.021474369189969,time,2828.0,-2.391662174291248,4.9744048057889614e-05,0,53,[],0.015875100041739643,None,"['space', 'space']",362.6992130000144,362.6992130000144,0.2146684000035748,2.2361427691935436,362.91941880004015,362.6992130000144,"[-1.8964932999806479, -0.008986199973151088]",,,,,,,,tlvjds,001,fr,0,2022-05-06_11h41.50.914,Continuous,2022.1.1,34.897472970645104,
10,0,10,0,3,0,3,0,,,,,,,,2.021474369189969,time,5656.0,-1.648893619626178,0.00010632733423949149,0,54,[],0.011209500022232533,0.20785579993389547,None,364.9440361999441,364.9440361999441,0.20785579993389547,2.2293301691238643,365.1534540000139,364.9440361999441,,,,,,,,,tlvjds,001,fr,0,2022-05-06_11h41.50.914,Continuous,2022.1.1,34.897472970645104,
10,0,10,0,4,0,4,0,,,,,,,,2.021474369189969,time,8000.0,-1.0,0.00016179682846481421,0,55,[],0.018479300080798566,None,['space'],367.18094759993255,367.18094759993255,0.221140900044702,2.242615269234671,367.39452179998625,367.18094759993255,[-1.9460203000344336],,,,,,,,tlvjds,001,fr,0,2022-05-06_11h41.50.914,Continuous,2022.1.1,34.897472970645104,
10,0,10,0,5,0,5,0,,,,,,,,2.021474369189969,time,6349.0,-1.8140450181153636,0.0001067090672766285,0,56,[],0.018252399866469204,None,['space'],369.4230347999837,369.4230347999837,0.219724899972789,2.241199269162758,369.63629509997554,369.4230347999837,[-1.9161944999359548],,,,,,,,tlvjds,001,fr,0,2022-05-06_11h41.50.914,Continuous,2022.1.1,34.897472970645104,
10,0,10,0,6,0,6,0,,,,,,,,2.021474369189969,time,7127.0,-2.2405761822464223,0.00011981651177369213,0,57,[],0.014468200039118528,None,"['space', 'space']",371.659469599952,371.659469599952,0.21128970000427216,2.232764069194241,371.8792124999454,371.659469599952,"[-1.976403999957256, 0.1997870000777766]",,,,,,,,tlvjds,001,fr,0,2022-05-06_11h41.50.914,Continuous,2022.1.1,34.897472970645104,
10,0,10,0,7,0,7,0,,,,,,,,2.021474369189969,time,,,,1,57,[],0.011219599982723594,0.20580240001436323,None,373.90372439997736,373.90372439997736,0.20580240001436323,2.227276769204332,374.1196816000156,373.90372439997736,,,,,,,,,tlvjds,001,fr,0,2022-05-06_11h41.50.914,Continuous,2022.1.1,34.897472970645104,
10,0,10,0,8,0,8,0,,,,,,,,2.021474369189969,time,2245.0,-1.7768150435977181,6.539810006326089e-05,0,58,[],0.014329400029964745,None,['space'],376.13720400002785,376.13720400002785,0.20930450002197176,2.2307788692119406,376.35615300002974,376.13720400002785,[-1.9107095000799745],,,,,,,,tlvjds,001,fr,0,2022-05-06_11h41.50.914,Continuous,2022.1.1,34.897472970645104,
11,0,11,0,0,0,0,0,,,,,0.3333333333333333,381.84161180001684,None,2.1478345323111476,both,792.0,2.8936019357988676,5.404407357960328e-05,0,35,[],0.024511300143785775,None,None,382.8688313999446,None,0.23523180012125522,2.383066332432403,383.08299100003205,None,,378.38187029992696,None,,,,,,tlvjds,001,fr,0,2022-05-06_11h41.50.914,Continuous,2022.1.1,34.897472970645104,
11,0,11,0,1,0,1,0,,,,,,,,2.1478345323111476,both,629.0,7.25798376299577,0.00011835628809646891,0,36,[],0.01517630007583648,0.2126686000265181,None,385.2230314000044,385.2230314000044,0.2126686000265181,2.3605031323376657,385.43863210000563,385.2230314000044,,,,,,,,,tlvjds,001,fr,0,2022-05-06_11h41.50.914,Continuous,2022.1.1,34.897472970645104,
11,0,11,0,2,0,2,0,,,,,,,,2.1478345323111476,both,,,,1,36,[],0.011106800055131316,None,['space'],387.5849341999274,387.5849341999274,0.20870009995996952,2.356534632271117,387.8028191999765,387.5849341999274,[-1.9825773000484332],,,,,,,,tlvjds,001,fr,0,2022-05-06_11h41.50.914,Continuous,2022.1.1,34.897472970645104,
11,0,11,0,3,0,3,0,,,,,,,,2.1478345323111476,both,396.0,6.235293164675333,0.00015906921313662274,0,37,[],0.018923399969935417,None,None,389.954815999954,389.954815999954,0.21999439992941916,2.367828932240567,390.16899259993806,389.954815999954,,,,,,,,,tlvjds,001,fr,0,2022-05-06_11h41.50.914,Continuous,2022.1.1,34.897472970645104,
11,0,11,0,4,0,4,0,,,,,,,,2.1478345323111476,both,314.0,3.879549699972616,0.00015580733245666544,0,38,[],0.013752499944530427,None,['space'],392.31677919998765,392.31677919998765,0.20848139992449433,2.356315932235642,392.5312473999802,392.31677919998765,[-1.9779151999391615],,,,,,,,tlvjds,001,fr,0,2022-05-06_11h41.50.914,Continuous,2022.1.1,34.897472970645104,
11,0,11,0,5,0,5,0,,,,,,,,2.1478345323111476,both,249.0,5.251225645311851,0.0003101573801547188,0,39,[],0.0149712999118492,0.21257589990273118,['space'],394.6830454999581,394.6830454999581,0.21257589990273118,2.360410432213879,394.8974548999686,394.6830454999581,[-1.7523260000161827],,,,,,,,tlvjds,001,fr,0,2022-05-06_11h41.50.914,Continuous,2022.1.1,34.897472970645104,
11,0,11,0,6,0,6,0,,,,,,,,2.1478345323111476,both,198.0,7.848470978907342,0.0006732097141773597,0,40,[],0.010671800002455711,0.20534540002699941,['space'],397.0449669000227,397.0449669000227,0.20534540002699941,2.353179932338147,397.25551849999465,397.0449669000227,[-2.0826823000097647],,,,,,,,tlvjds,001,fr,0,2022-05-06_11h41.50.914,Continuous,2022.1.1,34.897472970645104,
11,0,11,0,7,0,7,0,,,,,,,,2.1478345323111476,both,157.0,8.579692915064399,0.0011756821827471641,0,41,[],0.015410399879328907,None,"['space', 'space']",399.4051454999717,399.4051454999717,0.21436239988543093,2.3621969321965786,399.6214237000095,399.4051454999717,"[-2.122113800025545, -0.010538400034420192]",,,,,,,,tlvjds,001,fr,0,2022-05-06_11h41.50.914,Continuous,2022.1.1,34.897472970645104,
11,0,11,0,8,0,8,0,,,,,,,,2.1478345323111476,both,125.0,8.0,0.0018153902738505074,0,42,[],0.01786520006135106,None,['space'],401.7728672999656,401.7728672999656,0.2212895000120625,2.36912403232321,401.9843752000015,401.7728672999656,[0.06903130002319813],,,,,,,,tlvjds,001,fr,0,2022-05-06_11h41.50.914,Continuous,2022.1.1,34.897472970645104,
12,0,12,0,0,0,0,0,,,,,0.16666666666666666,408.8698321999982,None,2.278467407786083,both,4924.0,-3.211535642067876,0.00010192124787057654,0,43,[],0.024452900048345327,None,None,409.8848644000245,None,0.24142310000024736,2.5198905077863305,410.1027133000316,None,,404.12938810000196,None,,,,,,tlvjds,001,fr,0,2022-05-06_11h41.50.914,Continuous,2022.1.1,34.897472970645104,
12,0,12,0,1,0,1,0,,,,,,,,2.278467407786083,both,4387.0,-1.1720461099825705,9.661118530848736e-05,0,44,[],0.013019099947996438,None,['space'],412.37522129993886,412.37522129993886,0.20991470001172274,2.488382107797806,412.5930194000248,412.37522129993886,[-1.5874547000275925],,,,,,,,tlvjds,001,fr,0,2022-05-06_11h41.50.914,Continuous,2022.1.1,34.897472970645104,
12,0,12,0,2,0,2,0,,,,,,,,2.278467407786083,both,3908.0,-5.316467748359615,4.46384936389375e-05,0,45,[],0.012692100019194186,None,['space'],414.8777501999866,414.8777501999866,0.2150940999854356,2.4935615077715187,415.09640959999524,414.8777501999866,[-2.17100989993196],,,,,,,,tlvjds,001,fr,0,2022-05-06_11h41.50.914,Continuous,2022.1.1,34.897472970645104,
12,0,12,0,3,0,3,0,,,,,,,,2.278467407786083,both,3482.0,-3.6577945374676197,4.9123091305030834e-05,0,46,[],0.012117300066165626,None,['space'],417.37675009993836,417.37675009993836,0.2059875000268221,2.4844549078129052,417.5906469000038,417.37675009993836,[-2.062924399971962],,,,,,,,tlvjds,001,fr,0,2022-05-06_11h41.50.914,Continuous,2022.1.1,34.897472970645104,
12,0,12,0,4,0,4,0,,,,,,,,2.278467407786083,both,3102.0,-2.1765014830435647,5.0185451552521545e-05,0,47,[],0.015944200102239847,None,"['space', 'space']",419.8758187999483,419.8758187999483,0.21378960006404668,2.49225700785013,420.09092839993536,419.8758187999483,"[-2.193172700004652, -0.03308530000504106]",,,,,,,,tlvjds,001,fr,0,2022-05-06_11h41.50.914,Continuous,2022.1.1,34.897472970645104,
12,0,12,0,5,0,5,0,,,,,,,,2.278467407786083,both,2764.0,-2.425560309572571,5.255840604305896e-05,0,48,[],0.017299800063483417,None,None,422.37431350001134,422.37431350001134,0.2197814000537619,2.498248807839845,422.58280209999066,422.37431350001134,,,,,,,,,tlvjds,001,fr,0,2022-05-06_11h41.50.914,Continuous,2022.1.1,34.897472970645104,
12,0,12,0,6,0,6,0,,,,,,,,2.278467407786083,both,2462.0,0.0,8.505306297983944e-05,0,49,[],0.015929700108245015,None,['space'],424.864535599947,424.864535599947,0.21359160006977618,2.4920590078558593,425.07861650001723,424.864535599947,[-2.2693905999185517],,,,,,,,tlvjds,001,fr,0,2022-05-06_11h41.50.914,Continuous,2022.1.1,34.897472970645104,
12,0,12,0,7,0,7,0,,,,,,,,2.278467407786083,both,2193.0,-0.1975801427507553,7.731129245034803e-05,0,50,[],0.01670370006468147,None,"['space', 'space']",427.36659130000044,427.36659130000044,0.2185471000848338,2.497014507870917,427.578672499978,427.36659130000044,"[-2.227155600092374, -0.052049600053578615]",,,,,,,,tlvjds,001,fr,0,2022-05-06_11h41.50.914,Continuous,2022.1.1,34.897472970645104,
12,0,12,0,8,0,8,0,,,,,,,,2.278467407786083,both,1954.0,-0.6361484915921704,6.759809637602145e-05,0,51,[],0.009690199978649616,None,['space'],429.8645899000112,429.8645899000112,0.20395969995297492,2.482427107739058,430.07895849994384,429.8645899000112,[-0.11880589998327196],,,,,,,,tlvjds,001,fr,0,2022-05-06_11h41.50.914,Continuous,2022.1.1,34.897472970645104,
12,0,12,0,9,0,9,0,,,,,,,,2.278467407786083,both,1741.0,-0.036344567461602,6.28535779206531e-05,0,52,[],0.0132039999589324,None,['space'],432.3627476999536,432.3627476999536,0.20964969997294247,2.4881171077590256,432.57998609996866,432.3627476999536,[0.19993060000706464],,,,,,,,tlvjds,001,fr,0,2022-05-06_11h41.50.914,Continuous,2022.1.1,34.897472970645104,
12,0,12,0,10,0,10,0,,,,,,,,2.278467407786083,both,1551.0,0.7767589899568528,5.7532691348863836e-05,0,53,[],0.013324599945917726,None,['space'],434.86185169999953,434.86185169999953,0.21175009990110993,2.490217507687193,435.07782679994125,434.86185169999953,[0.21395180001854897],,,,,,,,tlvjds,001,fr,0,2022-05-06_11h41.50.914,Continuous,2022.1.1,34.897472970645104,
12,0,12,0,11,0,11,0,,,,,,,,2.278467407786083,both,,,,1,53,[],0.013450000085867941,None,['space'],437.36210259993095,437.36210259993095,0.21109470003284514,2.4895621078189283,437.5798833000008,437.36210259993095,[0.19234980002511293],,,,,,,,tlvjds,001,fr,0,2022-05-06_11h41.50.914,Continuous,2022.1.1,34.897472970645104,
12,0,12,0,12,0,12,0,,,,,,,,2.278467407786083,both,1231.0,2.470340720067415,7.138527688702719e-05,0,54,[],0.0164651001105085,None,None,439.8640314999502,439.8640314999502,0.21369130013044924,2.4921587079165324,440.0790799999377,439.8640314999502,,,,,,,,,tlvjds,001,fr,0,2022-05-06_11h41.50.914,Continuous,2022.1.1,34.897472970645104,
12,0,12,0,13,0,13,0,,,,,,,,2.278467407786083,both,1097.0,1.812978327428192,5.9276333997803515e-05,0,55,[],0.0163023000350222,None,"['space', 'space']",442.3661264999537,442.3661264999537,0.21914200007449836,2.4976094078605815,442.57907750003505,442.3661264999537,"[-2.0421379000181332, 0.0055426000617444515]",,,,,,,,tlvjds,001,fr,0,2022-05-06_11h41.50.914,Continuous,2022.1.1,34.897472970645104,
12,0,12,0,14,0,14,0,,,,,,,,2.278467407786083,both,977.0,1.9414917871305366,5.4268987886677135e-05,0,56,[],0.016606900026090443,None,['space'],444.86242339992896,444.86242339992896,0.21915439993608743,2.4976218077221706,445.072051599971,444.86242339992896,[-1.6432268999051303],,,,,,,,tlvjds,001,fr,0,2022-05-06_11h41.50.914,Continuous,2022.1.1,34.897472970645104,
13,0,13,0,0,0,0,0,,,,,0.5833333333333334,449.9041679999791,None,2.221998457611518,frequency,7379.0,-1.476271751310347,0.00013728216039201607,0,35,[],0.02439309994224459,None,None,450.911677600001,None,0.23382789990864694,2.455826357520165,451.12620029994287,None,,447.3552872999571,None,,,,,,tlvjds,001,fr,0,2022-05-06_11h41.50.914,Continuous,2022.1.1,34.897472970645104,
13,0,13,0,1,0,1,0,,,,,,,,2.883860732880655,frequency,4925.0,1.0,0.0001655937853633201,0,36,[],0.015270099975168705,None,['space'],453.3458583999891,453.3458583999891,0.21826770005282015,3.1021284329334753,453.56537099997513,453.3458583999891,[-1.9026940000476316],,,,,,,,tlvjds,001,fr,0,2022-05-06_11h41.50.914,Continuous,2022.1.1,34.897472970645104,
13,0,13,0,2,0,2,0,,,,,,,,1.6701577231903397,frequency,3287.0,0.24142087757289143,7.3437177157948e-05,0,37,[],0.01199360005557537,0.21008180000353605,['space'],456.44773220003117,456.44773220003117,0.21008180000353605,1.8802395231938758,456.6597377000144,456.44773220003117,[-2.829301099991426],,,,,,,,tlvjds,001,fr,0,2022-05-06_11h41.50.914,Continuous,2022.1.1,34.897472970645104,
13,0,13,0,3,0,3,0,,,,,,,,1.3932349878927188,frequency,2194.0,0.9893501813032164,8.865661722018932e-05,0,38,[],0.016423100023530424,None,['space'],458.3324958999874,458.3324958999874,0.21883749996777624,1.612072487860495,458.54712020000443,458.3324958999874,[-1.4821248999796808],,,,,,,,tlvjds,001,fr,0,2022-05-06_11h41.50.914,Continuous,2022.1.1,34.897472970645104,
13,0,13,0,4,0,4,0,,,,,,,,1.2055206231517894,frequency,1464.0,1.2257832929128372,5.6652836428158695e-05,0,39,[],0.009112800005823374,0.20406260003801435,['space'],459.9470044999616,459.9470044999616,0.20406260003801435,1.4095832231898038,460.15358109993394,459.9470044999616,[-1.2243488000240177],,,,,,,,tlvjds,001,fr,0,2022-05-06_11h41.50.914,Continuous,2022.1.1,34.897472970645104,
13,0,13,0,5,0,5,0,,,,,,,,1.3238118768006144,frequency,,,,1,39,[],0.01651700004003942,None,['space'],461.3695550999837,461.3695550999837,0.22018140007276088,1.5439932768733753,461.5811357999919,461.3695550999837,[-0.934229200007394],,,,,,,,tlvjds,001,fr,0,2022-05-06_11h41.50.914,Continuous,2022.1.1,34.897472970645104,
13,0,13,0,6,0,6,0,,,,,,,,1.8834017551782143,frequency,652.0,2.2735274731120865,6.396669827926732e-05,0,40,[],0.017052800045348704,None,None,462.90529389993753,462.90529389993753,0.21607700001914054,2.099478755197355,463.1151313999435,462.90529389993753,,,,,,,,,tlvjds,001,fr,0,2022-05-06_11h41.50.914,Continuous,2022.1.1,34.897472970645104,
13,0,13,0,7,0,7,0,,,,,,,,1.9870881227276456,frequency,435.0,1.2404905597539602,8.624394175271962e-05,0,41,[],0.01636740006506443,None,['space'],465.00663409999106,465.00663409999106,0.21847550000529736,2.205563622732943,465.2147430999903,465.00663409999106,[-1.5641694000223652],,,,,,,,tlvjds,001,fr,0,2022-05-06_11h41.50.914,Continuous,2022.1.1,34.897472970645104,
13,0,13,0,8,0,8,0,,,,,,,,2.533156651973883,frequency,290.0,1.0752392197749538,0.0001415928595440941,0,42,[],0.016517800046131015,None,['space'],467.20870640000794,467.20870640000794,0.21728730003815144,2.7504439520120343,467.41515649994835,467.20870640000794,[-1.846825800021179],,,,,,,,tlvjds,001,fr,0,2022-05-06_11h41.50.914,Continuous,2022.1.1,34.897472970645104,
13,0,13,0,9,0,9,0,,,,,,,,2.3343480935034417,frequency,194.0,5.160672262403783,0.0005204275771520023,0,43,[],0.009815699886530638,0.20658549992367625,['space'],469.95577450003475,469.95577450003475,0.20658549992367625,2.540933593427118,470.1655650000321,469.95577450003475,[-2.4174210999626666],,,,,,,,tlvjds,001,fr,0,2022-05-06_11h41.50.914,Continuous,2022.1.1,34.897472970645104,
14,0,14,0,0,0,0,0,,,,,,475.89087549992837,None,1.797765845759495,time,609.0,1.9120770222376704,6.78464630612823e-05,0,59,[],0.022766999900341034,None,None,476.91939339996316,None,0.22273749997839332,2.0205033457378883,477.135605199961,None,,472.5101334999781,None,"[0.5833333333333334, 0.3333333333333333, 0.5833333333333334, 0.3333333333333333, 0.16666666666666666, 0.3333333333333333, 0.3333333333333333, 0.5833333333333334, 0.16666666666666666, 0.3333333333333333, 0.3333333333333333, 0.3333333333333333, 0.3333333333333333, 0.5833333333333334, 0.16666666666666666]",,,,,tlvjds,001,fr,0,2022-05-06_11h41.50.914,Continuous,2022.1.1,34.897472970645104,
14,0,14,0,1,0,1,0,,,,,,,,1.797765845759495,time,6133.0,-1.9553946244665266,9.751691727500107e-05,0,60,[],0.012146000051870942,None,None,478.9396891000215,478.9396891000215,0.2086299000075087,2.0063957457670036,479.15516760002356,478.9396891000215,,,,,,,,,tlvjds,001,fr,0,2022-05-06_11h41.50.914,Continuous,2022.1.1,34.897472970645104,
14,0,14,0,2,0,2,0,,,,,,,,1.797765845759495,time,288.0,1.0715950200384794,0.0001439304957190289,0,61,[],0.011511400109156966,None,['space'],480.95935499994084,480.95935499994084,0.2062942001502961,2.004060045909791,481.17779270000756,480.95935499994084,[-1.62793249997776],,,,,,,,tlvjds,001,fr,0,2022-05-06_11h41.50.914,Continuous,2022.1.1,34.897472970645104,
14,0,14,0,3,0,3,0,,,,,,,,1.797765845759495,time,4093.0,-0.05025357950652953,8.981798316240752e-05,0,62,[],0.01239220006391406,None,['space'],482.9787546999287,482.9787546999287,0.20649400004185736,2.0042598458013523,483.1935566000175,482.9787546999287,[-1.3912583000492305],,,,,,,,tlvjds,001,fr,0,2022-05-06_11h41.50.914,Continuous,2022.1.1,34.897472970645104,
14,0,14,0,4,0,4,0,,,,,,,,1.797765845759495,time,1625.0,1.0,6.494171947928903e-05,0,63,[],0.012178999953903258,0.20672459993511438,['space'],484.9981972000096,484.9981972000096,0.20672459993511438,2.0044904456946093,485.20964889996685,484.9981972000096,[-1.3793290000176057],,,,,,,,tlvjds,001,fr,0,2022-05-06_11h41.50.914,Continuous,2022.1.1,34.897472970645104,
14,0,14,0,5,0,5,0,,,,,,,,1.797765845759495,time,,,,1,63,[],0.008755399961955845,None,['space'],487.008635199978,487.008635199978,0.20341369998641312,2.001179545745908,487.22259429993574,487.008635199978,[-1.3412576999980956],,,,,,,,tlvjds,001,fr,0,2022-05-06_11h41.50.914,Continuous,2022.1.1,34.897472970645104,
14,0,14,0,6,0,6,0,,,,,,,,1.797765845759495,time,2047.0,-1.372749898462179,6.476478942751642e-05,0,64,[],0.012093299883417785,0.20773039991036057,None,489.0248644000385,489.0248644000385,0.20773039991036057,2.0054962456698555,489.23716419993434,489.0248644000385,,,,,,,,,tlvjds,001,fr,0,2022-05-06_11h41.50.914,Continuous,2022.1.1,34.897472970645104,
14,0,14,0,7,0,7,0,,,,,,,,1.797765845759495,time,966.0,2.9676318719854287,6.06343585653287e-05,0,65,[],0.01267510000616312,0.20586079999338835,None,491.0380508999806,491.0380508999806,0.20586079999338835,2.0036266457528833,491.2497094999999,491.0380508999806,,,,,,,,,tlvjds,001,fr,0,2022-05-06_11h41.50.914,Continuous,2022.1.1,34.897472970645104,
14,0,14,0,8,0,8,0,,,,,,,,1.797765845759495,time,431.0,1.0659425685408164,8.475919133511025e-05,0,66,[],0.0158429000293836,None,['space'],493.04735010000877,493.04735010000877,0.21664420003071427,2.014410045790209,493.26719689997844,493.04735010000877,[-1.6209708000533283],,,,,,,,tlvjds,001,fr,0,2022-05-06_11h41.50.914,Continuous,2022.1.1,34.897472970645104,
14,0,14,0,9,0,9,0,,,,,,,,1.797765845759495,time,543.0,1.6156659858045193,7.797111330827092e-05,0,67,[],0.0157455001026392,None,['space'],495.0700880000368,495.0700880000368,0.21713470004033297,2.014900545799828,495.28204800002277,495.0700880000368,[-1.6275158999487758],,,,,,,,tlvjds,001,fr,0,2022-05-06_11h41.50.914,Continuous,2022.1.1,34.897472970645104,
14,0,14,0,10,0,10,0,,,,,,,,1.797765845759495,time,229.0,3.090037957177485,0.0002977623112980397,0,68,[],0.01572819985449314,None,['space'],497.0886372999521,497.0886372999521,0.21789939992595464,2.0156652456854496,497.3050794999581,497.0886372999521,[-1.6933977999724448],,,,,,,,tlvjds,001,fr,0,2022-05-06_11h41.50.914,Continuous,2022.1.1,34.897472970645104,
14,0,14,0,11,0,11,0,,,,,,,,1.797765845759495,time,3249.0,-2.5324131005785335,5.286268065458775e-05,0,69,[],0.015546199982054532,None,"['space', 'space']",499.10938129993156,499.10938129993156,0.21717069996520877,2.0149365457247037,499.322913800017,499.10938129993156,"[-1.7620090999407694, 0.12509440002031624]",,,,,,,,tlvjds,001,fr,0,2022-05-06_11h41.50.914,Continuous,2022.1.1,34.897472970645104,
14,0,14,0,12,0,12,0,,,,,,,,1.797765845759495,time,767.0,1.6428913660096245,4.8169821257855984e-05,0,70,[],0.01464269997086376,None,None,501.1296774999937,501.1296774999937,0.21702970005571842,2.0147955458152134,501.34531619993504,501.1296774999937,,,,,,,,,tlvjds,001,fr,0,2022-05-06_11h41.50.914,Continuous,2022.1.1,34.897472970645104,
14,0,14,0,13,0,13,0,,,,,,,,1.797765845759495,time,6884.0,-5.269073933798328,8.052994538073511e-05,0,71,[],0.011517600039951503,None,"['space', 'space']",503.1485377999488,503.1485377999488,0.21165170008316636,2.0094175458426613,503.36470589996316,503.1485377999488,"[-1.6419013999402523, 0.16553230001591146]",,,,,,,,tlvjds,001,fr,0,2022-05-06_11h41.50.914,Continuous,2022.1.1,34.897472970645104,
14,0,14,0,14,0,14,0,,,,,,,,1.797765845759495,time,2579.0,-2.286703831462903,6.224083432375623e-05,0,72,[],0.012111000018194318,None,['space'],505.16714949999005,505.16714949999005,0.2095975000411272,2.007363345800622,505.3840084000258,505.16714949999005,[0.2120770999463275],,,,,,,,tlvjds,001,fr,0,2022-05-06_11h41.50.914,Continuous,2022.1.1,34.897472970645104,
15,0,15,0,0,0,0,0,,,,,,509.67887569998857,None,1.5253373502351,none,8000.0,-7.0,8.109050486794653e-05,0,70,[],0.019756800029426813,0.21522170002572238,None,510.7033626999473,None,0.21522170002572238,1.7405590502608224,510.91712669993285,None,,507.1862028000178,None,"[0.3333333333333333, 0.5833333333333334, 0.16666666666666666, 0.16666666666666666, 0.3333333333333333, 0.16666666666666666, 0.5833333333333334, 0.3333333333333333, 0.3333333333333333, 0.5833333333333334, 0.3333333333333333, 0.16666666666666666, 0.3333333333333333, 0.5833333333333334, 0.5833333333333334]",,,,,tlvjds,001,fr,0,2022-05-06_11h41.50.914,Continuous,2022.1.1,34.897472970645104,
15,0,15,0,1,0,1,0,,,,,,,,2.004523112492481,none,3364.0,-5.721411107098568,3.76631275417154e-05,0,71,[],0.010812000022269785,0.2060808000387624,['space'],512.442288500024,512.442288500024,0.2060808000387624,2.2106039125312433,512.6561328000389,512.442288500024,[-0.759627400082536],,,,,,,,tlvjds,001,fr,0,2022-05-06_11h41.50.914,Continuous,2022.1.1,34.897472970645104,
15,0,15,0,2,0,2,0,,,,,,,,2.0409510210206347,none,2997.0,-4.678227722989558,3.210206236140773e-05,0,72,[],0.011297700111754239,0.20681720005813986,None,514.6612669000169,514.6612669000169,0.20681720005813986,2.2477682210787746,514.8749124000315,514.6612669000169,,,,,,,,,tlvjds,001,fr,0,2022-05-06_11h41.50.914,Continuous,2022.1.1,34.897472970645104,
15,0,15,0,3,0,3,0,,,,,,,,1.7082502574612652,none,2119.0,-5.209488791982771,4.251529870355611e-05,0,73,[],0.0070006001042202115,None,['space'],516.9218706999673,516.9218706999673,0.21595640003215522,1.9242066574934205,517.1443936999422,516.9218706999673,[-0.15055710007436574],,,,,,,,tlvjds,001,fr,0,2022-05-06_11h41.50.914,Continuous,2022.1.1,34.897472970645104,
15,0,15,0,4,0,4,0,,,,,,,,1.0216616433532888,none,,,,1,73,[],0.015611400012858212,None,None,518.8607905999525,518.8607905999525,0.21849839994683862,1.2401600433001274,519.070937099983,518.8607905999525,,,,,,,,,tlvjds,001,fr,0,2022-05-06_11h41.50.914,Continuous,2022.1.1,34.897472970645104,
15,0,15,0,5,0,5,0,,,,,,,,1.2113521544444557,none,2379.0,-6.242146009847669,4.0558773632735016e-05,0,74,[],0.014997699880041182,None,None,520.0980448999908,520.0980448999908,0.21254959993530065,1.4239017543797563,520.3111549000023,520.0980448999908,,,,,,,,,tlvjds,001,fr,0,2022-05-06_11h41.50.914,Continuous,2022.1.1,34.897472970645104,
15,0,15,0,6,0,6,0,,,,,,,,1.124654799792279,none,6350.0,-6.633654636157606,6.128030903671555e-05,0,75,[],0.015388499945402145,None,None,521.5319748999318,521.5319748999318,0.21792439999990165,1.3425791997921805,521.7425631999504,521.5319748999318,,,,,,,,,tlvjds,001,fr,0,2022-05-06_11h41.50.914,Continuous,2022.1.1,34.897472970645104,
15,0,15,0,7,0,7,0,,,,,,,,1.0316855762792894,none,5040.0,-6.811699355442729,6.905111853471274e-05,0,76,[],0.011680999887175858,0.20449089992325753,['space'],522.8739260999719,522.8739260999719,0.20449089992325753,1.236176476202547,523.0843510000268,522.8739260999719,[-0.9677068999735638],,,,,,,,tlvjds,001,fr,0,2022-05-06_11h41.50.914,Continuous,2022.1.1,34.897472970645104,
15,0,15,0,8,0,8,0,,,,,,,,1.5595235739065807,none,1260.0,-2.8643174631136317,3.901859069354829e-05,0,77,[],0.011394200031645596,0.20625200006179512,['space'],524.1206309000263,524.1206309000263,0.20625200006179512,1.7657755739683758,524.3356582999695,524.1206309000263,[-0.8382933000102639],,,,,,,,tlvjds,001,fr,0,2022-05-06_11h41.50.914,Continuous,2022.1.1,34.897472970645104,
16,0,16,0,0,0,0,0,,,,,0.16666666666666666,529.1091515999287,None,2.906091323371803,frequency,708.0,-5.995634072348356,2.2226102302544952e-05,0,44,[],0.024249100009910762,None,None,530.1309628000017,None,0.22934439999517053,3.1354357233669736,530.3460500999354,None,,525.8996997999493,None,,,,,,tlvjds,001,fr,0,2022-05-06_11h41.50.914,Continuous,2022.1.1,34.897472970645104,
16,0,16,0,1,0,1,0,,,,,,,,2.548374454911899,frequency,631.0,2.57730793810387,6.872114892283586e-05,0,45,[],0.011320000048726797,0.20663580007385463,['space'],533.2530289000133,533.2530289000133,0.20663580007385463,2.755010254985754,533.4612057999475,533.2530289000133,[-2.562207299983129],,,,,,,,tlvjds,001,fr,0,2022-05-06_11h41.50.914,Continuous,2022.1.1,34.897472970645104,
16,0,16,0,2,0,2,0,,,,,,,,1.7863215022574477,frequency,562.0,0.4240648064244401,6.486339076984036e-05,0,46,[],0.011949600069783628,0.2069657000247389,['space'],536.0156129000243,536.0156129000243,0.2069657000247389,1.9932872022821866,536.2175253999885,536.0156129000243,[-2.269373800023459],,,,,,,,tlvjds,001,fr,0,2022-05-06_11h41.50.914,Continuous,2022.1.1,34.897472970645104,
16,0,16,0,3,0,3,0,,,,,,,,2.9868854553310493,frequency,501.0,-5.102797988623978,3.961692659556228e-05,0,47,[],0.014643899980001152,None,['space'],538.0167128000176,538.0167128000176,0.21611619996838272,3.203001655299432,538.2221666999394,538.0167128000176,[-1.6462309000780806],,,,,,,,tlvjds,001,fr,0,2022-05-06_11h41.50.914,Continuous,2022.1.1,34.897472970645104,
16,0,16,0,4,0,4,0,,,,,,,,2.046223025516605,frequency,446.0,-0.14670178687940716,7.296116734473229e-05,0,48,[],0.007366099860519171,None,"['space', 'space']",541.2162860999815,541.2162860999815,0.20447839994449168,2.250701425461097,541.430748899933,541.2162860999815,"[-2.4944220999022946, -0.26909969991538674]",,,,,,,,tlvjds,001,fr,0,2022-05-06_11h41.50.914,Continuous,2022.1.1,34.897472970645104,
16,0,16,0,5,0,5,0,,,,,,,,1.2713232971407253,frequency,,,,1,48,[],0.007339799893088639,0.19762249989435077,None,543.4857406000374,543.4857406000374,0.19762249989435077,1.468945797035076,543.6940364999464,543.4857406000374,,,,,,,,,tlvjds,001,fr,0,2022-05-06_11h41.50.914,Continuous,2022.1.1,34.897472970645104,
16,0,16,0,6,0,6,0,,,,,,,,1.6547289967990897,frequency,354.0,-7.0,3.952988376608492e-05,0,49,[],0.016007700003683567,None,None,544.9732937000226,544.9732937000226,0.21983620000537485,1.8745651968044645,545.1888603999978,544.9732937000226,,,,,,,,,tlvjds,001,fr,0,2022-05-06_11h41.50.914,Continuous,2022.1.1,34.897472970645104,
16,0,16,0,7,0,7,0,,,,,,,,2.9892885997447385,frequency,315.0,0.5028706226846418,0.00010449933709918787,0,50,[],0.014721499872393906,None,None,546.8425013000378,546.8425013000378,0.21590429986827075,3.2051928996130092,547.0575178000145,546.8425013000378,,,,,,,,,tlvjds,001,fr,0,2022-05-06_11h41.50.914,Continuous,2022.1.1,34.897472970645104,
16,0,16,0,8,0,8,0,,,,,,,,1.8691106508355884,frequency,281.0,-3.2757071845170675,9.23404748743632e-05,0,51,[],0.010647400165908039,None,None,550.0477214999264,550.0477214999264,0.20858030021190643,2.0776909510474946,550.2679139999673,550.0477214999264,,,,,,,,,tlvjds,001,fr,0,2022-05-06_11h41.50.914,Continuous,2022.1.1,34.897472970645104,
16,0,16,0,9,0,9,0,,,,,,,,2.021427104554104,frequency,250.0,-4.125932711740015,0.00010415338010828503,0,52,[],0.014437599922530353,None,None,552.1470508000348,552.1470508000348,0.21535059995949268,2.236777704513597,552.3599220999749,552.1470508000348,,,,,,,,,tlvjds,001,fr,0,2022-05-06_11h41.50.914,Continuous,2022.1.1,34.897472970645104,
16,0,16,0,10,0,10,0,,,,,,,,2.4575578306668873,frequency,223.0,0.21604563422888567,0.00022593116272663736,0,53,[],0.009766099974513054,0.20301820000167936,None,554.3891548999818,554.3891548999818,0.20301820000167936,2.6605760306685666,554.6010862999829,554.3891548999818,,,,,,,,,tlvjds,001,fr,0,2022-05-06_11h41.50.914,Continuous,2022.1.1,34.897472970645104,
16,0,16,0,11,0,11,0,,,,,,,,2.9334122404456746,frequency,199.0,4.703415601549214,0.0004624438171435398,0,54,[],0.009025800041854382,None,None,557.0642597000115,557.0642597000115,0.206003800034523,3.1394160404801976,557.2788456999697,557.0642597000115,,,,,,,,,tlvjds,001,fr,0,2022-05-06_11h41.50.914,Continuous,2022.1.1,34.897472970645104,
16,0,16,0,12,0,12,0,,,,,,,,2.875047407880115,frequency,177.0,0.6136868006117222,0.0003747728825612309,0,55,[],0.014120000065304339,None,None,560.2235806999961,560.2235806999961,0.21992660011164844,3.0949740079917634,560.4335474999389,560.2235806999961,,,,,,,,,tlvjds,001,fr,0,2022-05-06_11h41.50.914,Continuous,2022.1.1,34.897472970645104,
16,0,16,0,13,0,13,0,,,,,,,,2.2046994102605746,frequency,158.0,-2.561609043316375,0.0003193764500299505,0,56,[],0.01328130008187145,0.21175400004722178,None,563.3109761000378,563.3109761000378,0.21175400004722178,2.4164534103077964,563.5194506000262,563.3109761000378,,,,,,,,,tlvjds,001,fr,0,2022-05-06_11h41.50.914,Continuous,2022.1.1,34.897472970645104,
16,0,16,0,14,0,14,0,,,,,,,,1.0310280919171408,frequency,141.0,-6.306937360137804,0.00028072873223284933,0,57,[],0.010313300066627562,None,['space'],565.730760699953,565.730760699953,0.20718120003584772,1.2382092919529886,565.9469640000025,565.730760699953,[-1.4884083999786526],,,,,,,,tlvjds,001,fr,0,2022-05-06_11h41.50.914,Continuous,2022.1.1,34.897472970645104,
17,0,17,0,0,0,0,0,,,,,,622.8013025999535,None,2.5912328245776175,time,265.0,1.8105360917329505,0.00018672475518103686,0,73,[],0.02193540008738637,None,None,623.8122004999314,None,0.22571840009186417,2.8169512246694817,624.0351061000256,None,,566.9846933999797,None,"[0.16666666666666666, 0.3333333333333333, 0.16666666666666666, 0.3333333333333333, 0.3333333333333333, 0.3333333333333333, 0.16666666666666666, 0.16666666666666666, 0.16666666666666666, 0.5833333333333334, 0.5833333333333334, 0.5833333333333334, 0.3333333333333333, 0.16666666666666666, 0.3333333333333333]",,,,,tlvjds,001,fr,0,2022-05-06_11h41.50.914,Continuous,2022.1.1,34.897472970645104,
17,0,17,0,1,0,1,0,,,,,,,,2.5912328245776175,time,1061.0,1.0222158632689964,5.2424348035255744e-05,0,74,[],0.007361700059846044,0.1999348000390455,None,626.6223622999387,626.6223622999387,0.1999348000390455,2.791167624616663,626.838425999973,626.6223622999387,,,,,,,,,tlvjds,001,fr,0,2022-05-06_11h41.50.914,Continuous,2022.1.1,34.897472970645104,
17,0,17,0,2,0,2,0,,,,,,,,2.5912328245776175,time,141.0,0.04343898434984794,0.0005831841091480675,0,75,[],0.011357600102201104,0.20557820005342364,['space'],629.4305509999394,629.4305509999394,0.20557820005342364,2.796811024631041,629.639253100031,629.4305509999394,[-2.38788219995331],,,,,,,,tlvjds,001,fr,0,2022-05-06_11h41.50.914,Continuous,2022.1.1,34.897472970645104,
17,0,17,0,3,0,3,0,,,,,,,,2.5912328245776175,time,,,,1,75,[],0.0106305000372231,None,None,632.2418162999675,632.2418162999675,0.20453860005363822,2.7957714246312557,632.4540125000058,632.2418162999675,,,,,,,,,tlvjds,001,fr,0,2022-05-06_11h41.50.914,Continuous,2022.1.1,34.897472970645104,
17,0,17,0,4,0,4,0,,,,,,,,2.5912328245776175,time,158.0,1.2467369934720267,0.0004951310830838876,0,76,[],0.015359500073827803,None,None,635.0520920000272,635.0520920000272,0.21587439998984337,2.807107224567461,635.2627613999648,635.0520920000272,,,,,,,,,tlvjds,001,fr,0,2022-05-06_11h41.50.914,Continuous,2022.1.1,34.897472970645104,
17,0,17,0,5,0,5,0,,,,,,,,2.5912328245776175,time,397.0,0.7239868562487269,8.405534294627215e-05,0,77,[],0.010393999982625246,None,None,637.8604694999522,637.8604694999522,0.20394539996050298,2.7951782245381205,638.0726067000069,637.8604694999522,,,,,,,,,tlvjds,001,fr,0,2022-05-06_11h41.50.914,Continuous,2022.1.1,34.897472970645104,
17,0,17,0,6,0,6,0,,,,,,,,2.5912328245776175,time,177.0,0.0,0.00034920770625886783,0,78,[],0.014075899962335825,None,['space'],640.6744107999839,640.6744107999839,0.2145356999244541,2.8057685245020716,640.8822153999936,640.6744107999839,[-2.0796956000849605],,,,,,,,tlvjds,001,fr,0,2022-05-06_11h41.50.914,Continuous,2022.1.1,34.897472970645104,
17,0,17,0,7,0,7,0,,,,,,,,2.5912328245776175,time,126.0,0.23000761942083336,0.0007329718738917948,0,79,[],0.010198200005106628,0.2048509999876842,None,643.4816046999767,643.4816046999767,0.2048509999876842,2.7960838245653017,643.6986765000038,643.4816046999767,,,,,,,,,tlvjds,001,fr,0,2022-05-06_11h41.50.914,Continuous,2022.1.1,34.897472970645104,
17,0,17,0,8,0,8,0,,,,,,,,2.5912328245776175,time,842.0,0.4481798652698239,4.165670823695814e-05,0,80,[],0.010006200056523085,0.20607459999155253,None,646.2905956000322,646.2905956000322,0.20607459999155253,2.79730742456917,646.5030081999721,646.2905956000322,,,,,,,,,tlvjds,001,fr,0,2022-05-06_11h41.50.914,Continuous,2022.1.1,34.897472970645104,
17,0,17,0,9,0,9,0,,,,,,,,2.5912328245776175,time,595.0,2.6590551797511663,7.690567466518805e-05,0,81,[],0.012297000037506223,None,['space'],649.1007489999756,649.1007489999756,0.21129170001950115,2.8025245245971186,649.316521700006,649.1007489999756,[-2.426307999994606],,,,,,,,tlvjds,001,fr,0,2022-05-06_11h41.50.914,Continuous,2022.1.1,34.897472970645104,
18,0,18,0,0,0,0,0,,,,,0.3333333333333333,656.4380800999934,None,2.322216585776806,frequency,8000.0,3.0,0.0002564306919956826,0,58,[],0.020654099993407726,0.21904690004885197,None,657.4522365999874,None,0.21904690004885197,2.5412634858256578,657.6690188000211,None,,651.9082315999549,None,,,,,,tlvjds,001,fr,0,2022-05-06_11h41.50.914,Continuous,2022.1.1,34.897472970645104,
18,0,18,0,1,0,1,0,,,,,,,,1.1509621906919307,frequency,6350.0,-0.14465478441317714,0.00012935134216433144,0,59,[],0.009468600037507713,None,['space'],659.9886085999897,659.9886085999897,0.20562720007728785,1.3565893907692186,660.2049964999314,659.9886085999897,[-2.162346199969761],,,,,,,,tlvjds,001,fr,0,2022-05-06_11h41.50.914,Continuous,2022.1.1,34.897472970645104,
18,0,18,0,2,0,2,0,,,,,,,,2.7864623145469585,frequency,5040.0,-3.0948896460669233,0.000105928105092442,0,60,[],0.006445999955758452,None,['space'],661.3618975999998,661.3618975999998,0.2019661000231281,2.9884284145700866,661.5794861000031,661.3618975999998,[-1.1355990000301972],,,,,,,,tlvjds,001,fr,0,2022-05-06_11h41.50.914,Continuous,2022.1.1,34.897472970645104,
18,0,18,0,3,0,3,0,,,,,,,,1.1057614560569007,frequency,4000.0,-5.439201036330475,4.4875567373502774e-05,0,61,[],0.01057450007647276,0.20346490002702922,['space'],664.3724445999833,664.3724445999833,0.20346490002702922,1.30922635608393,664.5873175000306,664.3724445999833,[-2.5784222000511363],,,,,,,,tlvjds,001,fr,0,2022-05-06_11h41.50.914,Continuous,2022.1.1,34.897472970645104,
18,0,18,0,4,0,4,0,,,,,,,,2.278690015239905,frequency,3175.0,2.088656665937253,8.833961835553038e-05,0,62,[],0.010084099951200187,None,['space'],665.6929069999605,665.6929069999605,0.20902219996787608,2.487712215207781,665.9123864999274,665.6929069999605,[-0.8901483999798074],,,,,,,,tlvjds,001,fr,0,2022-05-06_11h41.50.914,Continuous,2022.1.1,34.897472970645104,
18,0,18,0,5,0,5,0,,,,,,,,1.7880349408660334,frequency,2520.0,-1.8669717796297247,6.827968392101826e-05,0,63,[],0.00743330002296716,0.2015362000092864,['space'],668.1999253999675,668.1999253999675,0.2015362000092864,1.9895711408753198,668.414091499988,668.1999253999675,[-2.2132179000182077],,,,,,,,tlvjds,001,fr,0,2022-05-06_11h41.50.914,Continuous,2022.1.1,34.897472970645104,
18,0,18,0,6,0,6,0,,,,,,,,2.3029593578840823,frequency,2000.0,2.0657582285654,9.489818706930154e-05,0,64,[],0.005604000063613057,0.18337360001169145,"['space', 'space']",670.2114193999441,670.2114193999441,0.18337360001169145,2.486332957895774,670.40665359993,670.2114193999441,"[-1.6337604000000283, -0.16109900001902133]",,,,,,,,tlvjds,001,fr,0,2022-05-06_11h41.50.914,Continuous,2022.1.1,34.897472970645104,
18,0,18,0,7,0,7,0,,,,,,,,1.0707351649802987,frequency,,,,1,64,[],0.010891600046306849,None,['space'],672.7097658000421,672.7097658000421,0.21035090007353574,1.2810860650538345,672.9259605000261,672.7097658000421,[-1.8432727000908926],,,,,,,,tlvjds,001,fr,0,2022-05-06_11h41.50.914,Continuous,2022.1.1,34.897472970645104,
18,0,18,0,8,0,8,0,,,,,,,,1.5017912170784278,frequency,1260.0,3.0,7.664563952403347e-05,0,65,[],0.0025565000250935555,None,None,674.0040652999887,674.0040652999887,0.20485380000900477,1.7066450170874325,674.2271421999903,674.0040652999887,,,,,,,,,tlvjds,001,fr,0,2022-05-06_11h41.50.914,Continuous,2022.1.1,34.897472970645104,
19,0,19,0,0,0,0,0,,,,,0.3333333333333333,681.381554499967,None,1.3020242975212832,both,8000.0,1.0,0.0002036901389020564,0,57,[],0.02439640008378774,None,None,682.4201944000088,None,0.2511501000262797,1.553174397547563,682.6478398999898,None,,675.728912099963,None,,,,,,tlvjds,001,fr,0,2022-05-06_11h41.50.914,Continuous,2022.1.1,34.897472970645104,
19,0,19,0,1,0,1,0,,,,,,,,1.3020242975212832,both,6350.0,-2.5700463278713217,9.783660234870904e-05,0,58,[],0.009356200112961233,0.2046837001107633,['space'],683.9462900999933,683.9462900999933,0.2046837001107633,1.5067079976320465,684.1626696999883,683.9462900999933,[-1.175625600037165],,,,,,,,tlvjds,001,fr,0,2022-05-06_11h41.50.914,Continuous,2022.1.1,34.897472970645104,
19,0,19,0,2,0,2,0,,,,,,,,1.3020242975212832,both,5040.0,-0.2721473268731671,0.0001466048437401158,0,59,[],0.012911800062283874,None,['space'],685.472119199927,685.472119199927,0.2142124001402408,1.516236697661524,685.6883949999465,685.472119199927,[-1.2614336999831721],,,,,,,,tlvjds,001,fr,0,2022-05-06_11h41.50.914,Continuous,2022.1.1,34.897472970645104,
19,0,19,0,3,0,3,0,,,,,,,,1.3020242975212832,both,4000.0,-0.8579981685117906,7.604490048726649e-05,0,60,[],0.009330600034445524,0.20349460002034903,['space'],686.999143699999,686.999143699999,0.20349460002034903,1.5055188975416323,687.2111100000329,686.999143699999,[-1.3010121999541298],,,,,,,,tlvjds,001,fr,0,2022-05-06_11h41.50.914,Continuous,2022.1.1,34.897472970645104,
19,0,19,0,4,0,4,0,,,,,,,,1.3020242975212832,both,3175.0,-2.920837733323288,4.9622746610461627e-05,0,61,[],0.009567300090566278,0.20568020001519471,"['space', 'space']",688.5178918000311,688.5178918000311,0.20568020001519471,1.507704497536478,688.7364460999379,688.5178918000311,"[-1.2836840000236407, 0.2048812999855727]",,,,,,,,tlvjds,001,fr,0,2022-05-06_11h41.50.914,Continuous,2022.1.1,34.897472970645104,
19,0,19,0,5,0,5,0,,,,,,,,1.3020242975212832,both,2520.0,-0.4809263999733211,8.00928542895794e-05,0,62,[],0.008194299996830523,0.2017605999717489,['space'],690.0381130999885,690.0381130999885,0.2017605999717489,1.5037848974930321,690.2490232000127,690.0381130999885,[0.05951549997553229],,,,,,,,tlvjds,001,fr,0,2022-05-06_11h41.50.914,Continuous,2022.1.1,34.897472970645104,
19,0,19,0,6,0,6,0,,,,,,,,1.3020242975212832,both,2000.0,-0.08738770090017622,7.406288397820926e-05,0,63,[],0.01299690012820065,None,['space'],691.5612426999724,691.5612426999724,0.21517850016243756,1.5172027976837208,691.7678223999683,691.5612426999724,[-0.007353499997407198],,,,,,,,tlvjds,001,fr,0,2022-05-06_11h41.50.914,Continuous,2022.1.1,34.897472970645104,
19,0,19,0,7,0,7,0,,,,,,,,1.3020242975212832,both,1587.0,1.0,6.244290896536261e-05,0,64,[],0.012440200080163777,None,['space'],693.0823591999942,693.0823591999942,0.2150654001161456,1.5170896976374288,693.2920601000078,693.0823591999942,[-0.02395619999151677],,,,,,,,tlvjds,001,fr,0,2022-05-06_11h41.50.914,Continuous,2022.1.1,34.897472970645104,
19,0,19,0,8,0,8,0,,,,,,,,1.3020242975212832,both,,,,1,64,[],0.01302660012152046,None,['space'],694.5986239999766,694.5986239999766,0.21532450011000037,1.5173487976312836,694.8131121000042,694.5986239999766,[-0.0675091000739485],,,,,,,,tlvjds,001,fr,0,2022-05-06_11h41.50.914,Continuous,2022.1.1,34.897472970645104,
20,0,20,0,0,0,0,0,,,,,0.5833333333333334,700.5631242999807,None,1.8610506872544554,frequency,1411.0,10.98318295452492,0.00017887710747182804,0,66,[],0.024411799968220294,None,None,701.5927885000128,None,0.23189399996772408,2.0929446872221797,701.8058021999896,None,,696.1187301999889,None,,,,,,tlvjds,001,fr,0,2022-05-06_11h41.50.914,Continuous,2022.1.1,34.897472970645104,
20,0,20,0,1,0,1,0,,,,,,,,1.831597645092369,frequency,942.0,4.255585780291462,6.921271332125837e-05,0,67,[],0.009096100111491978,None,None,703.6640927999979,703.6640927999979,0.20102800009772182,2.032625645190091,703.8786832999904,703.6640927999979,,,,,,,,,tlvjds,001,fr,0,2022-05-06_11h41.50.914,Continuous,2022.1.1,34.897472970645104,
20,0,20,0,2,0,2,0,,,,,,,,1.29379234484784,frequency,629.0,8.943593541021714,0.00014370498219383026,0,68,[],0.009579499950632453,0.2033542999997735,['space'],705.7142568000127,705.7142568000127,0.2033542999997735,1.4971466448476134,705.9275056000333,705.7142568000127,[-1.6800446000415832],,,,,,,,tlvjds,001,fr,0,2022-05-06_11h41.50.914,Continuous,2022.1.1,34.897472970645104,
20,0,20,0,3,0,3,0,,,,,,,,1.0024718600351086,frequency,420.0,8.585257967242862,0.00020295343283128125,0,69,[],0.00937959982547909,None,['space'],707.2304284999846,707.2304284999846,0.20682839991059154,1.2093002599457001,707.4495506000239,707.2304284999846,[-1.1162253000074998],,,,,,,,tlvjds,001,fr,0,2022-05-06_11h41.50.914,Continuous,2022.1.1,34.897472970645104,
20,0,20,0,4,0,4,0,,,,,,,,1.3009036322701915,frequency,280.0,9.498326955258255,0.00040503974181179314,0,70,[],0.0066445000702515244,None,['space'],708.4592158999294,708.4592158999294,0.20073400007095188,1.5016376323411433,708.6746664999519,708.4592158999294,[-0.7602252000942826],,,,,,,,tlvjds,001,fr,0,2022-05-06_11h41.50.914,Continuous,2022.1.1,34.897472970645104,
20,0,20,0,5,0,5,0,,,,,,,,2.7128165780675495,frequency,187.0,7.042464625017638,0.000703676776111017,0,71,[],0.007898300071246922,None,['space'],709.9838571000146,709.9838571000146,0.2029455000301823,2.915762078097732,710.1978785999818,709.9838571000146,[-1.1181774999713525],,,,,,,,tlvjds,001,fr,0,2022-05-06_11h41.50.914,Continuous,2022.1.1,34.897472970645104,
20,0,20,0,6,0,6,0,,,,,,,,1.6424314780298208,frequency,125.0,12.0,0.002877199686685786,0,72,[],0.010711500071920455,0.20598460012115538,['space'],712.9186838000314,712.9186838000314,0.20598460012115538,1.8484160781509762,713.127467699931,712.9186838000314,[-2.580028000054881],,,,,,,,tlvjds,001,fr,0,2022-05-06_11h41.50.914,Continuous,2022.1.1,34.897472970645104,
20,0,20,0,7,0,7,0,,,,,,,,2.3883633086860607,frequency,,,,1,72,[],0.009540500119328499,None,['space'],714.7766704999376,714.7766704999376,0.20897510007489473,2.5973384087609555,714.9947123000165,714.7766704999376,[-1.4619110999628901],,,,,,,,tlvjds,001,fr,0,2022-05-06_11h41.50.914,Continuous,2022.1.1,34.897472970645104,
21,0,21,0,0,0,0,0,,,,,,722.8102639999706,None,2.288439618293239,none,140.0,-6.163508049446946,0.0002897816345904222,0,78,[],0.024221000028774142,None,['space'],723.8368003999349,None,0.22824870003387332,2.5166883183271125,724.0501574999653,None,[-0.5226328000426292],717.3898563999683,None,"[0.16666666666666666, 0.5833333333333334, 0.16666666666666666, 0.16666666666666666, 0.3333333333333333, 0.16666666666666666, 0.3333333333333333, 0.16666666666666666, 0.3333333333333333, 0.16666666666666666, 0.16666666666666666, 0.3333333333333333, 0.3333333333333333, 0.3333333333333333, 0.3333333333333333]",,,,,tlvjds,001,fr,0,2022-05-06_11h41.50.914,Continuous,2022.1.1,34.897472970645104,
21,0,21,0,1,0,1,0,,,,,,,,2.7174596486351685,none,223.0,-5.890763175160967,0.00011184992491745196,0,79,[],0.0048059000400826335,None,None,726.3471691999584,726.3471691999584,0.19835850002709776,2.9158181486622663,726.561080000014,726.3471691999584,,,,,,,,,tlvjds,001,fr,0,2022-05-06_11h41.50.914,Continuous,2022.1.1,34.897472970645104,
21,0,21,0,2,0,2,0,,,,,,,,1.754345474373739,none,354.0,-11.439985836532458,2.370971019003571e-05,0,80,[],0.007986499927937984,None,None,729.2873176999856,729.2873176999856,0.20268389990087599,1.957029374274615,729.5058154999278,729.2873176999856,,,,,,,,,tlvjds,001,fr,0,2022-05-06_11h41.50.914,Continuous,2022.1.1,34.897472970645104,
21,0,21,0,3,0,3,0,,,,,,,,1.8303174000881486,none,562.0,-6.251096992552152,3.0077487707149914e-05,0,81,[],0.012246399885043502,None,None,731.2703489999985,731.2703489999985,0.21478159993421286,2.0450990000223612,731.4868590999395,731.2703489999985,,,,,,,,,tlvjds,001,fr,0,2022-05-06_11h41.50.914,Continuous,2022.1.1,34.897472970645104,
21,0,21,0,4,0,4,0,,,,,,,,2.9116444768416585,none,125.0,-9.55448022533329,0.00024057250648933424,0,82,[],0.010235799942165613,0.20968909992370754,None,733.3229018999264,733.3229018999264,0.20968909992370754,3.121333576765366,733.5392935000127,733.3229018999264,,,,,,,,,tlvjds,001,fr,0,2022-05-06_11h41.50.914,Continuous,2022.1.1,34.897472970645104,
21,0,21,0,5,0,5,0,,,,,,,,2.0634125935449443,none,,,,1,82,[],0.005353500018827617,0.1980555000482127,None,736.458403400029,736.458403400029,0.1980555000482127,2.261468093593157,736.6647008999716,736.458403400029,,,,,,,,,tlvjds,001,fr,0,2022-05-06_11h41.50.914,Continuous,2022.1.1,34.897472970645104,
21,0,21,0,6,0,6,0,,,,,,,,1.9742904794920488,none,199.0,-11.463027583529932,7.190131248646394e-05,0,83,[],0.010543499956838787,0.2063021999783814,None,738.7335909999674,738.7335909999674,0.2063021999783814,2.18059267947043,738.9513538000174,738.7335909999674,,,,,,,,,tlvjds,001,fr,0,2022-05-06_11h41.50.914,Continuous,2022.1.1,34.897472970645104,
21,0,21,0,7,0,7,0,,,,,,,,2.8502216853907467,none,446.0,-7.457027028020459,3.1446731446279884e-05,0,84,['none'],0.011937900097109377,None,None,740.9306761999615,740.9306761999615,0.2136441000038758,3.0638657853946225,741.1430162999313,740.9306761999615,,,,,"{'estimation': [[125.0, 9.582833740506526], [126.0949115013513, 9.0], [127.8924456963509, 8.0], [129.67359281779298, 7.0], [131.5426798874633, 6.0], [133.61575200459876, 5.0], [133.9716828170366, 4.840626734766285], [135.67641103428076, 4.0], [137.56682270540986, 3.0], [139.41924873319516, 2.0], [141.34569521735492, 1.0], [143.4637563630156, 0.0], [143.5872943746293, -0.05513719910334184], [145.83181017741668, -1.0], [148.06815577641518, -2.0], [150.29144884730007, -3.0], [152.6280384560156, -4.0], [153.89305166811442, -4.507483040128353], [155.47098263419747, -5.0], [158.5584170319014, -6.0], [161.64778887141384, -7.0], [164.90294379180884, -8.0], [164.93848884661162, -8.010607384493941], [170.03727441728188, -9.0], [175.31761376789652, -10.000000000000002], [176.77669529663655, -10.267749114955004], [186.6175774054403, -11.0], [189.46457081379947, -11.203834331357216], [200.90760433676223, -11.0], [203.0630990890585, -10.964151664184117], [215.3827191834313, -10.0], [217.6376408240306, -9.835329448316793], [225.1083337896875, -9.0], [233.25824788420132, -8.146062054866416], [234.45415845829024, -8.0], [242.81976944566344, -7.0], [249.99999999999937, -6.191939479065022], [251.66351967599186, -6.0], [260.457110998209, -5.0], [267.94336563407256, -4.193360671022164], [269.83758009274675, -4.0], [279.77062140378285, -3.0], [287.1745887492579, -2.2914443450498405], [290.5624022279154, -2.0], [302.4498267447466, -1.0], [307.78610333622805, -0.5727930976919036], [316.16807318411304, 0.0], [329.87697769322244, 0.8965344911810067], [331.8983404872242, 1.0], [352.20666677821276, 2.0], [353.55339059327247, 2.063645361006595], [378.929141627598, 2.8852469415176527], [385.3495063465431, 3.0], [406.12619817811606, 3.359737633266928], [435.2752816480601, 3.530785751357584], [466.5164957684015, 3.4989924791268487], [499.9999999999975, 3.389136995675263], [535.8867312681438, 3.3141082340434203], [574.3491774985143, 3.339429762953937], [615.5722066724546, 3.4660211360255277], [659.7539553864432, 3.639483322162283], [707.1067811865431, 3.7795891166906737], [757.8582832551941, 3.8153592861296137], [812.2523963562301, 3.7126230290582214], [870.5505632961181, 3.482798928308487], [933.0329915368008, 3.170426591921909], [966.0896568322746, 3.0], [999.9999999999926, 2.8323626555576435], [1071.773462536285, 2.5187132293982657], [1148.698354997026, 2.2465447316185125], [1231.1444133449063, 2.0016306718584507], [1231.6988578439268, 2.0], [1319.5079107728832, 1.7454580441100807], [1414.2135623730828, 1.4236623777529755], [1511.5294162754785, 1.0], [1515.7165665103846, 0.9823492095713308], [1624.5047927124563, 0.39322353265940013], [1685.1907769734316, 0.0], [1741.1011265922318, -0.34000904662016895], [1839.896121415182, -1.0], [1866.065983073597, -1.1646938082703508], [1999.9999999999802, -1.987950063461556], [2002.3640413426708, -2.0], [2143.5469250725646, -2.6935817010174077], [2241.2202610712766, -3.0], [2297.3967099940432, -3.171658823283697], [2462.2888266898062, -3.3480405718094515], [2639.01582154576, -3.2232547255568473], [2759.160781160108, -3.0], [2828.427124746159, -2.877164202737603], [3031.4331330207615, -2.4650458652806755], [3249.0095854249043, -2.174804004855397], [3482.202253184451, -2.178935946500016], [3732.1319661471844, -2.5839292359691437], [3868.0234578334666, -3.0], [3999.9999999999554, -3.3957060303754867], [4154.937261008377, -4.0], [4287.093850145118, -4.5023371084979305], [4411.8624576025, -5.0], [4594.793419988081, -5.706246298490786], [4683.28250941716, -6.0], [4924.577653379601, -6.77092125299171], [5035.402217019564, -7.0], [5278.0316430915, -7.482390069038235], [5656.854249492303, -7.7002509479524], [6062.866266041516, -7.396669215644032], [6289.264949942846, -7.0], [6498.019170849792, -6.643476102418814], [6781.233559191173, -6.0], [6964.404506368894, -5.593895878987166], [7216.952804512177, -5.0], [7464.2639322943505, -4.427923710510782], [7671.009736818126, -4.0], [7999.999999999872, -3.308728962896165]], 'plus_line': [[125.0, 3.8365536760200927], [126.45486826355796, 3.0], [128.15429996967575, 2.0], [129.9765511867465, 1.0], [132.0805317079581, 0.0], [133.9716828170366, -0.7660673871890319], [134.40153249816618, -1.0], [136.07841735011473, -2.0], [137.71891304852744, -3.0], [139.4663446858112, -4.0], [141.45625562566806, -5.0], [143.5872943746293, -5.90874080666953], [143.77916453762842, -6.0], [145.7209748944153, -7.0], [147.63489083930043, -8.0], [149.66667719720243, -9.0], [151.9530855844441, -10.0], [153.89305166811442, -10.74849078400738], [154.58379955752264, -11.0], [157.2309928308881, -12.0], [160.00018191142183, -13.0], [163.066140771791, -14.0], [164.93848884661162, -14.559461331597982], [166.99891468672777, -15.0], [171.81036097593955, -16.0], [176.77669529663666, -16.9261518617523], [177.8173625628461, -17.0], [189.46457081379947, -17.793535057657074], [203.0630990890585, -17.341880795555944], [206.4312393578847, -17.0], [216.77460196891784, -16.0], [217.6376408240306, -15.92203419938605], [224.9613838957238, -15.0], [232.90096128105773, -14.0], [233.25824788420132, -13.957659571750604], [240.7537801046496, -13.0], [248.3708231731807, -12.0], [249.99999999999937, -11.796511832974657], [256.7926283712395, -11.0], [265.0206117259064, -10.0], [267.94336563407256, -9.656886689921354], [274.34776234640475, -9.0], [283.79596212553366, -8.0], [287.1745887492579, -7.65252221482398], [294.67019527756315, -7.0], [305.9048173064633, -6.0], [307.78610333622805, -5.839136103688991], [319.7053511483483, -5.0], [329.87697769322244, -4.286416297472821], [335.2172386742725, -4.0], [353.55339059327247, -3.042487267517366], [354.74705024969126, -3.0], [378.929141627598, -2.191748963050228], [389.4070594692444, -2.0], [406.12619817811606, -1.7201540634081178], [435.2752816480601, -1.5714530869820889], [466.5164957684015, -1.6267902727007757], [499.9999999999975, -1.7563664331398392], [535.8867312681438, -1.8498203921734941], [574.3491774985143, -1.8446853626563584], [615.5722066724546, -1.7372265564485125], [659.7539553864432, -1.5768477925791737], [707.1067811865431, -1.4418506183198303], [757.8582832551951, -1.40214209813491], [812.2523963562301, -1.48683334966476], [870.5505632961181, -1.6795549001837458], [933.0329915368008, -1.942393327082292], [945.2231832957493, -2.0], [999.9999999999926, -2.2646808579462947], [1071.773462536285, -2.6083274932115197], [1148.698354997026, -2.9651176737963865], [1156.2326299914737, -3.0], [1231.1444133449063, -3.3634194463715366], [1319.5079107728832, -3.76588803762102], [1373.1224953693534, -4.0], [1414.2135623730828, -4.1861208044015505], [1515.7165665103846, -4.632282363819078], [1597.740146876507, -5.0], [1624.5047927124563, -5.119615033190579], [1741.1011265922318, -5.701808990437473], [1794.2523149599485, -6.0], [1866.065983073597, -6.39047574366316], [1973.768083482698, -7.0], [1999.9999999999777, -7.145525759469376], [2143.5469250725646, -7.864029644722153], [2184.045252382151, -8.0], [2297.3967099940432, -8.387050081028956], [2462.2888266898062, -8.567213343276613], [2639.01582154576, -8.384885569634905], [2798.4482888201424, -8.0], [2828.427124746159, -7.934923693562353], [3031.4331330207615, -7.450983151349792], [3249.0095854249043, -7.131326369664257], [3482.2022531844555, -7.18348851595438], [3732.1319661471844, -7.683295491579877], [3824.7816670355173, -8.0], [3999.9999999999504, -8.598032369170824], [4095.4478978983084, -9.0], [4287.093850145118, -9.784465160169548], [4338.740955652121, -10.0], [4587.054289832581, -11.000000000000002], [4594.7934199880865, -11.03045579776949], [4890.05668721267, -12.0], [4924.577653379601, -12.109404790553512], [5278.031643091506, -12.810799746366287], [5631.565378876689, -13.0], [5656.85424949231, -13.01413579955145], [5674.66075625585, -13.0], [6062.866266041516, -12.724382300767541], [6483.424100441001, -12.0], [6498.019170849792, -11.976308909630207], [6937.546896155563, -11.0], [6964.404506368894, -10.942422148505107], [7393.56042537448, -10.0], [7464.2639322943505, -9.847756016997582], [7989.652290894267, -9.0], [7999.999999999882, -8.983287727162416]], 'minus_line': [[125.0, 15.436755582713854], [125.891430330023, 15.0], [127.76522721809576, 14.0], [129.42806219328057, 13.0], [131.0022815104944, 12.0], [132.6234005019221, 11.0], [133.9716828170366, 10.258869171095526], [134.60314877499437, 10.0], [136.84441790589685, 9.0], [138.76257348991822, 8.0], [140.52815246072623, 7.0], [142.3157536357778, 6.0], [143.5872943746293, 5.3592453934879], [144.6422334436771, 5.0], [147.30574636918004, 4.0], [149.62700460775176, 3.0], [151.82856487848767, 2.0], [153.89305166811442, 1.1062964493283296], [154.30033410294575, 1.0], [157.94327912000313, 0.0], [161.18833958695447, -1.0], [164.33735464904603, -2.0], [164.93848884661162, -2.1816534612145064], [169.6589328357765, -3.0], [175.0819229849841, -4.0], [176.77669529663666, -4.308458998289064], [186.11888626320547, -5.0], [189.46457081379958, -5.239887826463228], [203.06309908905865, -5.101248929041293], [204.50756374101158, -5.0], [217.6376408240306, -4.1263182477878635], [218.84624032001008, -4.0], [228.80382358164817, -3.0], [233.25824788420132, -2.5910770896092443], [238.33277814957805, -2.0], [247.6679578590218, -1.0], [249.99999999999937, -0.7672978047473574], [256.73586188060875, 0.0], [266.45919042421167, 1.0], [267.94336563407256, 1.143882727241388], [276.33510706372107, 2.0], [287.17458874925757, 2.983804832568942], [287.36305289122004, 3.0], [299.0993822420189, 4.0], [307.78610333622805, 4.665607396905141], [312.71103232460536, 5.0], [328.35348721608574, 6.0], [329.87697769322244, 6.093049607780913], [348.2534798452612, 7.0], [353.55339059327247, 7.249067694613578], [376.52392411496726, 8.0], [378.929141627598, 8.07798885672208], [406.12619817811606, 8.588803595912445], [435.2752816480601, 8.779927510874236], [466.5164957684015, 8.751028532910997], [499.9999999999975, 8.626649554934225], [535.8867312681438, 8.530800916913714], [574.3491774985137, 8.542807788397365], [615.5722066724546, 8.669427655206333], [659.7539553864432, 8.85498042751663], [702.0514886083914, 9.0], [707.1067811865431, 9.018332252761846], [757.8582832551941, 9.085684104482347], [807.8088412542799, 9.0], [812.2523963562301, 8.993213602860918], [870.5505632961181, 8.761148922759324], [933.0329915368008, 8.425196098159436], [999.9999999999926, 8.059084711306303], [1013.4741465817616, 8.0], [1071.773462536285, 7.769889546853407], [1148.698354997026, 7.579257587794842], [1231.1444133449063, 7.461687870662292], [1319.5079107728832, 7.337513310742884], [1414.2135623730828, 7.093263646695419], [1434.2074100676787, 7.0], [1515.7165665103846, 6.652360993825414], [1616.490362088983, 6.0], [1624.5047927124563, 5.952004899387947], [1741.1011265922318, 5.061965276734151], [1748.6402466104857, 5.0], [1866.065983073597, 4.0951817812199], [1879.6295680198114, 4.0], [1999.9999999999802, 3.204857937355551], [2040.40792147279, 3.0], [2143.5469250725646, 2.510306868854346], [2297.396709994046, 2.0635748744388875], [2357.868920519163, 2.0], [2462.2888266898062, 1.9019662127459651], [2639.01582154576, 1.9891077882294468], [2646.2302421588097, 2.0], [2828.427124746159, 2.2815159870084396], [3031.4331330207656, 2.6469902817947766], [3249.0095854249043, 2.9301799464920983], [3482.2022531844555, 2.9711979089283447], [3732.1319661471844, 2.6383503347415824], [3951.788626658045, 2.0], [3999.9999999999504, 1.8669051979943783], [4225.864315011064, 1.0], [4287.093850145118, 0.7721918829652102], [4478.794402938552, 0.0], [4594.793419988081, -0.45516687052870675], [4753.488358956744, -1.0], [4924.577653379601, -1.565288201122761], [5124.513587609253, -2.0], [5278.0316430915, -2.312264268437916], [5656.854249492303, -2.5210902705696334], [6062.866266041508, -2.1650638280560166], [6148.202366276357, -2.0], [6498.019170849792, -1.3221589109667624], [6627.776321269709, -1.0], [6964.4045063688845, -0.18256385948862375], [7033.498398254681, 0.0], [7417.800760467991, 1.0], [7464.2639322943505, 1.1184272236580017], [7792.130207842344, 2.0], [7999.999999999882, 2.5474072339838623]]}",,,,tlvjds,001,fr,0,2022-05-06_11h41.50.914,Continuous,2022.1.1,34.897472970645104,
21,0,21,0,8,0,8,0,,,,,,,,2.8882756363064575,none,281.0,-4.2872953823309725,8.218881025500283e-05,0,85,['none'],0.0010390998795628548,None,None,744.0088482999709,744.0088482999709,0.19674469996243715,3.0850203362688946,744.2237939999904,744.0088482999709,,,,,,,,,tlvjds,001,fr,0,2022-05-06_11h41.50.914,Continuous,2022.1.1,34.897472970645104,
21,0,21,0,9,0,9,0,,,,,,,,1.943440574286462,none,177.0,-12.0,8.771700991302334e-05,0,86,['none'],0.00798600004054606,0.20592600002419204,None,747.123128999956,747.123128999956,0.20592600002419204,2.149366574310654,747.341191799962,747.123128999956,,,,,,,,,tlvjds,001,fr,0,2022-05-06_11h41.50.914,Continuous,2022.1.1,34.897472970645104,
22,0,22,0,0,0,0,0,,,,,0.5833333333333334,819.4962939999532,None,2.759448661375436,frequency,3167.0,-0.604814089624782,6.465513454403852e-05,0,73,['none'],0.02269530005287379,None,None,820.4979070000118,None,0.22171100007835776,2.981159661453794,820.7129561000038,None,,749.2894784000237,None,,,,,,tlvjds,001,fr,0,2022-05-06_11h41.50.914,Continuous,2022.1.1,34.897472970645104,
22,0,22,0,1,0,1,0,,,,,,,,2.1069529009549814,frequency,2114.0,-1.5845731464833155,6.444200786110668e-05,0,74,['none'],0.007325199898332357,None,['space'],823.476979100029,823.476979100029,0.2050695999059826,2.312022500860964,823.6866174000315,823.476979100029,[-2.6426603000145406],,,,,,,,tlvjds,001,fr,0,2022-05-06_11h41.50.914,Continuous,2022.1.1,34.897472970645104,
22,0,22,0,2,0,2,0,,,,,,,,1.793497910060002,frequency,1411.0,5.033866497304134,9.017557923517685e-05,0,75,['none'],0.007802399923093617,None,['space'],825.8046682999702,825.8046682999702,0.20617030002176762,1.9996682100817695,826.0240064000245,825.8046682999702,[-1.8832246999954805],,,,,,,,tlvjds,001,fr,0,2022-05-06_11h41.50.914,Continuous,2022.1.1,34.897472970645104,
22,0,22,0,3,0,3,0,,,,,,,,2.865746488749436,frequency,942.0,4.047994741907431,6.757815383811406e-05,0,76,['none'],0.00705679995007813,None,['space'],827.824289000011,827.824289000011,0.20293609995860606,3.0686825887080422,828.0388498000102,827.824289000011,[-1.6942226000828668],,,,,,,,tlvjds,001,fr,0,2022-05-06_11h41.50.914,Continuous,2022.1.1,34.897472970645104,
22,0,22,0,4,0,4,0,,,,,,,,2.3234380335410876,frequency,629.0,3.8005328896795345,7.949115231850784e-05,0,77,['none'],0.007006800035014749,None,"['space', 'space']",830.9111462000292,830.9111462000292,0.20239720004610717,2.5258352335871948,831.1263603999978,830.9111462000292,"[-2.780612300033681, -0.557406899984926]",,,,,,,,tlvjds,001,fr,0,2022-05-06_11h41.50.914,Continuous,2022.1.1,34.897472970645104,
22,0,22,0,5,0,5,0,,,,,,,,1.2884384054927434,frequency,420.0,5.6149638360502605,0.00014417225621595226,0,78,['none'],0.008870900142937899,None,None,833.4625424999977,833.4625424999977,0.2081117001362145,1.4965501056289578,833.679006399936,833.4625424999977,,,,,,,,,tlvjds,001,fr,0,2022-05-06_11h41.50.914,Continuous,2022.1.1,34.897472970645104,
