sweeps.thisRepN,sweeps.thisTrialN,sweeps.thisN,sweeps.thisIndex,trials.thisRepN,trials.thisTrialN,trials.thisN,trials.thisIndex,instructions.started,instructions.stopped,blank_text.started,blank_text.stopped,,text.started,text.stopped,Delay,Prediction,Frequency,Volume,Psychopy_level,isCatchTrial,len(y),finished_audiograms,probe.started,probe.stopped,feedback.keys,feedback.started,feedback.stopped,ISI.started,ISI.stopped,text_2.started,text_2.stopped,break_txt.started,break_txt.stopped,Intervals,feedback.rt,Audiogram_frequency,Audiogram_time,Audiogram_both,Audiogram_none,end_txt.started,end_txt.stopped,participant,session,language (english or french),Resume previous experiment,date,expName,psychopyVersion,frameRate,
0,0,0,0,0,0,0,0,15.146357599995099,None,118.14830309999525,None,0.16666666666666666,120.07524929998908,None,2.0920096941485373,both,758.0,-7.034074231255775,1.7920979572288466e-05,0,26,[],0.012619840010302141,0.19901764001406264,None,121.10412730000098,None,0.19901764001406264,2.2910273341626,121.31210149999242,None,,,,,,,,,,,quicsb,001,fr,0,2022-07-21_14h56.39.686,Continuous,2022.1.1,34.86564349927824,
0,0,0,0,1,0,1,0,,,,,,,,2.0920096941485373,both,675.0,-6.6465650834103025,2.19676566413194e-05,0,27,[],0.016071039994130842,None,None,123.40333829999145,123.40333829999145,0.21369643999787513,2.3057061341464125,123.62108559999615,123.40333829999145,,,,,,,,,,,quicsb,001,fr,0,2022-07-21_14h56.39.686,Continuous,2022.1.1,34.86564349927824,
0,0,0,0,2,0,2,0,,,,,,,,2.0920096941485373,both,601.0,-6.122305280470091,2.7520195002543776e-05,0,28,[],0.023736240007565357,None,None,125.71274589998939,125.71274589998939,0.23191824000969063,2.323927934158228,125.92742759999237,125.71274589998939,,,,,,,,,,,quicsb,001,fr,0,2022-07-21_14h56.39.686,Continuous,2022.1.1,34.86564349927824,
0,0,0,0,3,0,3,0,,,,,,,,2.0920096941485373,both,535.0,-3.435088545926192,4.4431269272849896e-05,0,29,[],0.023795440007233992,None,None,128.0107311999891,128.0107311999891,0.23100044000602793,2.3230101341545653,128.22130809999362,128.0107311999891,,,,,,,,,,,quicsb,001,fr,0,2022-07-21_14h56.39.686,Continuous,2022.1.1,34.86564349927824,
0,0,0,0,4,0,4,0,,,,,,,,2.0920096941485373,both,477.0,-2.387260439448095,5.5168701658761195e-05,0,30,[],0.023520840011769906,None,None,130.3132210999902,130.3132210999902,0.23108354001305997,2.3230932341615973,130.52721549999842,130.3132210999902,,,,,,,,,,,quicsb,001,fr,0,2022-07-21_14h56.39.686,Continuous,2022.1.1,34.86564349927824,
0,0,0,0,5,0,5,0,,,,,,,,2.0920096941485373,both,425.0,-1.7654076219503816,6.143157614522205e-05,0,31,[],0.016147639995324425,None,None,132.61413279999397,132.61413279999397,0.20989463999285363,2.301904334141391,132.8304264999897,132.61413279999397,,,,,,,,,,,quicsb,001,fr,0,2022-07-21_14h56.39.686,Continuous,2022.1.1,34.86564349927824,
0,0,0,0,6,0,6,0,,,,,,,,2.0920096941485373,both,379.0,-8.0,3.264724102951903e-05,0,32,[],0.023698940000031143,None,None,134.92238150000048,134.92238150000048,0.2340442400018219,2.326053934150359,135.13695039998856,134.92238150000048,,,,,,,,,,,quicsb,001,fr,0,2022-07-21_14h56.39.686,Continuous,2022.1.1,34.86564349927824,
0,0,0,0,7,0,7,0,,,,,,,,2.0920096941485373,both,338.0,-2.085906585272462,7.2870324664537e-05,0,33,[],0.023387139997794293,None,None,137.21977850000258,137.21977850000258,0.22366944000532385,2.315679134153861,137.43499539999175,137.21977850000258,,,,,,,,,,,quicsb,001,fr,0,2022-07-21_14h56.39.686,Continuous,2022.1.1,34.86564349927824,
0,0,0,0,8,0,8,0,,,,,,,,2.0920096941485373,both,301.0,1.2331187148380565,0.00013075894051253528,0,34,[],0.023319240019191056,None,None,139.5214064999891,139.5214064999891,0.2303522400179645,2.322361934166502,139.73713229999703,139.5214064999891,,,,,,,,,,,quicsb,001,fr,0,2022-07-21_14h56.39.686,Continuous,2022.1.1,34.86564349927824,
0,0,0,0,9,0,9,0,,,,,,,,2.0920096941485373,both,268.0,-7.837122820747182,6.020282225489142e-05,0,35,[],0.016044439995312132,None,None,141.82355599998846,141.82355599998846,0.2116611399978865,2.303670834146424,142.03983850000077,141.82355599998846,,,,,,,,,,,quicsb,001,fr,0,2022-07-21_14h56.39.686,Continuous,2022.1.1,34.86564349927824,
0,0,0,0,10,0,10,0,,,,,,,,2.0920096941485373,both,239.0,0.03651857887406029,0.00018983024879867761,0,36,[],0.023338240003795363,None,None,144.13149509999494,144.13149509999494,0.22670194000238553,2.318711634150923,144.34367570000177,144.13149509999494,,,,,,,,,,,quicsb,001,fr,0,2022-07-21_14h56.39.686,Continuous,2022.1.1,34.86564349927824,
0,0,0,0,11,0,11,0,,,,,,,,2.0920096941485373,both,,,,1,36,[],0.023587739997310564,None,None,146.42934199998854,146.42934199998854,0.22773493999557104,2.3197446341441084,146.64395919999515,146.42934199998854,,,,,,,,,,,quicsb,001,fr,0,2022-07-21_14h56.39.686,Continuous,2022.1.1,34.86564349927824,
0,0,0,0,12,0,12,0,,,,,,,,2.0920096941485373,both,190.0,-3.028566556649927,0.0002130002505041451,0,37,[],0.02456623999751173,None,None,148.72957389999647,148.72957389999647,0.22849333999329247,2.32050303414183,148.94597220000287,148.72957389999647,,,,,,,,,,,quicsb,001,fr,0,2022-07-21_14h56.39.686,Continuous,2022.1.1,34.86564349927824,
0,0,0,0,13,0,13,0,,,,,,,,2.0920096941485373,both,169.0,0.2734366217267782,0.0003904434476766587,0,38,[],0.022043739998480305,None,None,151.0290493999928,151.0290493999928,0.22419824000098743,2.3162079341495247,151.24506909999764,151.0290493999928,,,,,,,,,,,quicsb,001,fr,0,2022-07-21_14h56.39.686,Continuous,2022.1.1,34.86564349927824,
0,0,0,0,14,0,14,0,,,,,,,,2.0920096941485373,both,151.0,-5.69959562004468,0.0002548706565130889,0,39,[],0.023275439991266467,None,None,153.3300401000015,153.3300401000015,0.2281728399975691,2.3201825341461064,153.5414591000008,153.3300401000015,,,,,,,,,,,quicsb,001,fr,0,2022-07-21_14h56.39.686,Continuous,2022.1.1,34.86564349927824,
1,0,1,0,0,0,0,0,,,,,,160.9172966999904,None,2.9382266639405836,none,143.0,-7.4039843331359085,0.0002398278020290487,0,26,[],0.024104939991957508,0.22055964000173844,None,161.9271951999981,None,0.22055964000173844,3.158786303942322,162.12907909999194,None,155.63226559999748,None,"[0.5833333333333334, 0.3333333333333333, 0.3333333333333333, 0.5833333333333334, 0.5833333333333334, 0.16666666666666666, 0.3333333333333333, 0.3333333333333333, 0.5833333333333334, 0.5833333333333334, 0.3333333333333333, 0.5833333333333334, 0.3333333333333333, 0.16666666666666666, 0.3333333333333333]",,,,,,,,quicsb,001,fr,0,2022-07-21_14h56.39.686,Continuous,2022.1.1,34.86564349927824,
1,0,1,0,1,0,1,0,,,,,,,,1.3464782984435324,none,201.0,-7.118073890158607,0.00011610447472507243,0,27,[],0.022656839995761402,None,None,165.0672870999988,165.0672870999988,0.23144304000015836,1.5779213384436908,165.2773848999932,165.0672870999988,,,,,,,,,,,quicsb,001,fr,0,2022-07-21_14h56.39.686,Continuous,2022.1.1,34.86564349927824,
1,0,1,0,2,0,2,0,,,,,,,,2.264456575417201,none,160.0,-7.957494248088836,0.00016447325671961401,0,28,[],0.023107140004867688,None,None,166.62665389999165,166.62665389999165,0.22850753999955487,2.492964115416756,166.8432671999908,166.62665389999165,,,,,,,,,,,quicsb,001,fr,0,2022-07-21_14h56.39.686,Continuous,2022.1.1,34.86564349927824,
1,0,1,0,3,0,3,0,,,,,,,,2.635407937134671,none,,,,1,28,[],0.01629153999965638,None,None,169.10180979999132,169.10180979999132,0.21509814000455663,2.8505060771392277,169.31578029999218,169.10180979999132,,,,,,,,,,,quicsb,001,fr,0,2022-07-21_14h56.39.686,Continuous,2022.1.1,34.86564349927824,
1,0,1,0,4,0,4,0,,,,,,,,1.2207266673110004,none,379.0,-8.0,3.264724102951903e-05,0,29,[],0.023508940008468926,None,None,171.95100909999746,171.95100909999746,0.22625484001764562,1.446981507328646,172.17079819999344,171.95100909999746,,,,,,,,,,,quicsb,001,fr,0,2022-07-21_14h56.39.686,Continuous,2022.1.1,34.86564349927824,
1,0,1,0,5,0,5,0,,,,,,,,2.3263921113167165,none,1913.0,0.06287435779653405,7.139842680449476e-05,0,30,[],0.01843103999271989,None,None,173.3876203999971,173.3876203999971,0.22090253999340348,2.54729465131012,173.60342529999616,173.3876203999971,,,,,,,,,,,quicsb,001,fr,0,2022-07-21_14h56.39.686,Continuous,2022.1.1,34.86564349927824,
1,0,1,0,6,0,6,0,,,,,,,,1.4977259840695607,none,716.0,-5.708634952894476,2.2609166577277498e-05,0,31,[],0.022693940001772717,None,None,175.93136899999809,175.93136899999809,0.22536234000290278,1.7230883240724635,176.15521169999556,175.93136899999809,,,,,,,,,,,quicsb,001,fr,0,2022-07-21_14h56.39.686,Continuous,2022.1.1,34.86564349927824,
1,0,1,0,7,0,7,0,,,,,,,,2.5839243593594308,none,1073.0,0.6003746109133825,5.0476976434675854e-05,0,32,[],0.01504234000458382,0.21113583999976981,None,177.64622309998958,177.64622309998958,0.21113583999976981,2.7950601993592006,177.86119759999565,177.64622309998958,,,,,,,,,,,quicsb,001,fr,0,2022-07-21_14h56.39.686,Continuous,2022.1.1,34.86564349927824,
1,0,1,0,8,0,8,0,,,,,,,,1.118307269441524,none,568.0,-0.8546617184669763,5.51356332825932e-05,0,33,[],0.021910039999056607,None,None,180.44324469999992,180.44324469999992,0.22551104000012856,1.3438183094416525,180.66378199998871,180.44324469999992,,,,,,,,,,,quicsb,001,fr,0,2022-07-21_14h56.39.686,Continuous,2022.1.1,34.86564349927824,
1,0,1,0,9,0,9,0,,,,,,,,1.0642077484625467,none,1518.0,2.3033768964543606,6.49531649325406e-05,0,34,[],0.022720640001352876,None,None,181.7777938999934,181.7777938999934,0.227357440002379,1.2915651884649257,181.99229090000154,181.7777938999934,,,,,,,,,,,quicsb,001,fr,0,2022-07-21_14h56.39.686,Continuous,2022.1.1,34.86564349927824,
1,0,1,0,10,0,10,0,,,,,,,,2.2666368016133926,none,1352.0,0.7327214828195441,5.655180078907091e-05,0,35,[],0.01566164000541903,None,['space'],183.05072439998912,183.05072439998912,0.21000104000268038,2.476637841616073,183.2666720999987,183.05072439998912,,,,[-0.21121969999512658],,,,,,,quicsb,001,fr,0,2022-07-21_14h56.39.686,Continuous,2022.1.1,34.86564349927824,
2,0,2,0,0,0,0,0,,,,,0.3333333333333333,190.11931969999569,None,1.6486453888815564,both,7818.0,2.7134327774048517,0.00024056864337479902,0,40,[],0.02298324000730645,None,None,191.1361174999911,None,0.23677404000773095,1.8854194288892874,191.3564042999933,None,185.5324205999932,None,,,,,,,,,quicsb,001,fr,0,2022-07-21_14h56.39.686,Continuous,2022.1.1,34.86564349927824,
2,0,2,0,1,0,1,0,,,,,,,,1.6486453888815564,both,6205.0,1.7622831701248207,0.0001537675472515836,0,41,[],0.015335339994635433,0.21152873999380972,['space'],192.99478699998872,192.99478699998872,0.21152873999380972,1.8601741288753662,193.20971519999148,192.99478699998872,,,,[-0.9469317000039155],,,,,,,quicsb,001,fr,0,2022-07-21_14h56.39.686,Continuous,2022.1.1,34.86564349927824,
2,0,2,0,2,0,2,0,,,,,,,,1.6486453888815564,both,4925.0,3.0,0.00020847022442907278,0,42,[],0.022472040000138804,None,['space'],194.8568998999981,194.8568998999981,0.22656064000329934,1.8752060288848558,195.06946129999415,194.8568998999981,,,,[-1.520772699994268],,,,,,,quicsb,001,fr,0,2022-07-21_14h56.39.686,Continuous,2022.1.1,34.86564349927824,
2,0,2,0,3,0,3,0,,,,,,,,1.6486453888815564,both,3909.0,0.6330493925197018,8.856823331126179e-05,0,43,[],0.014388139999937266,None,['space'],196.71761799999513,196.71761799999513,0.20973564000451006,1.8583810288860665,196.9326677999925,196.71761799999513,,,,[-1.5410928999917815],,,,,,,quicsb,001,fr,0,2022-07-21_14h56.39.686,Continuous,2022.1.1,34.86564349927824,
2,0,2,0,4,0,4,0,,,,,,,,1.6486453888815564,both,3103.0,2.659679605080562,8.770489977920786e-05,0,44,[],0.014940640001441352,0.21289153999532573,['space'],198.58376270000008,198.58376270000008,0.21289153999532573,1.8615369288768822,198.79580549999082,198.58376270000008,,,,[-1.5759083000011742],,,,,,,quicsb,001,fr,0,2022-07-21_14h56.39.686,Continuous,2022.1.1,34.86564349927824,
2,0,2,0,5,0,5,0,,,,,,,,1.6486453888815564,both,,,,1,44,[],0.02259943999524694,None,['space'],200.4474487999978,200.4474487999978,0.22894544000155292,1.8775908288831094,200.66105439999956,200.4474487999978,,,,[-1.4715304999990622],,,,,,,quicsb,001,fr,0,2022-07-21_14h56.39.686,Continuous,2022.1.1,34.86564349927824,
2,0,2,0,6,0,6,0,,,,,,,,1.6486453888815564,both,1955.0,3.6472753434499934,0.00011075801924706028,0,45,[],0.020697839994682,None,None,202.29988530000264,202.29988530000264,0.21963463998690713,1.8682800288684636,202.5197446999955,202.29988530000264,,,,,,,,,,,quicsb,001,fr,0,2022-07-21_14h56.39.686,Continuous,2022.1.1,34.86564349927824,
2,0,2,0,7,0,7,0,,,,,,,,1.6486453888815564,both,1552.0,6.2235156723715175,0.00010788208523320127,0,46,[],0.021598139996058308,None,None,204.16771799999697,204.16771799999697,0.22764594000182115,1.8762913288833776,204.37820839999767,204.16771799999697,,,,,,,,,,,quicsb,001,fr,0,2022-07-21_14h56.39.686,Continuous,2022.1.1,34.86564349927824,
2,0,2,0,8,0,8,0,,,,,,,,1.6486453888815564,both,1232.0,4.768101597662412,9.307536389139717e-05,0,47,[],0.01873003999935463,None,['space'],206.0219667999918,206.0219667999918,0.21721554000396281,1.8658609288855192,206.24074819999805,206.0219667999918,,,,[-1.4692683000030229],,,,,,,quicsb,001,fr,0,2022-07-21_14h56.39.686,Continuous,2022.1.1,34.86564349927824,
2,0,2,0,9,0,9,0,,,,,,,,1.6486453888815564,both,978.0,3.0,6.134249825094325e-05,0,48,[],0.022117339991382323,None,['space'],207.88658389999182,207.88658389999182,0.23049203999107704,1.8791374288726335,208.1018813999981,207.88658389999182,,,,[-1.4306596999958856],,,,,,,quicsb,001,fr,0,2022-07-21_14h56.39.686,Continuous,2022.1.1,34.86564349927824,
2,0,2,0,10,0,10,0,,,,,,,,1.6486453888815564,both,776.0,2.9851854336418215,5.564280189542735e-05,0,49,[],0.018770139999105595,None,None,209.7415761000011,209.7415761000011,0.217891239997698,1.8665366288792544,209.96113209999749,209.7415761000011,,,,,,,,,,,quicsb,001,fr,0,2022-07-21_14h56.39.686,Continuous,2022.1.1,34.86564349927824,
3,0,3,0,0,0,0,0,,,,,,215.87129869998898,None,1.7511545089794802,none,283.0,3.4424341091831065,0.00019697468750141,0,36,[],0.018988339987117797,None,['space'],216.88012909999816,None,0.2304509399982635,1.9816054489777437,217.09915249999904,None,211.6024783999892,None,"[0.16666666666666666, 0.3333333333333333, 0.3333333333333333, 0.5833333333333334, 0.3333333333333333, 0.16666666666666666, 0.5833333333333334, 0.5833333333333334, 0.5833333333333334, 0.5833333333333334, 0.16666666666666666, 0.5833333333333334, 0.5833333333333334, 0.3333333333333333, 0.3333333333333333]",[-1.7833580000005895],,,,,,,quicsb,001,fr,0,2022-07-21_14h56.39.686,Continuous,2022.1.1,34.86564349927824,
3,0,3,0,1,0,1,0,,,,,,,,2.6524475720453324,none,189.0,4.0,0.0004841911708835744,0,37,[],0.016499139994266443,0.21109453999088146,['space'],218.85298719999264,218.85298719999264,0.21109453999088146,2.863542112036214,219.07030839999788,218.85298719999264,,,,[-1.43761789999553],,,,,,,quicsb,001,fr,0,2022-07-21_14h56.39.686,Continuous,2022.1.1,34.86564349927824,
3,0,3,0,2,0,2,0,,,,,,,,2.3437988610227563,none,,,,1,37,[],0.021876540005905554,None,['space'],221.713854799993,221.713854799993,0.22518084000330418,2.5689797010260604,221.9281661999994,221.713854799993,,,,[-2.4499661000008928],,,,,,,quicsb,001,fr,0,2022-07-21_14h56.39.686,Continuous,2022.1.1,34.86564349927824,
3,0,3,0,3,0,3,0,,,,,,,,2.417818826638285,none,1131.0,4.822873727229791,8.630337300808871e-05,0,38,[],0.023098339996067807,None,None,224.26520229999733,224.26520229999733,0.22867133999534417,2.646490166633629,224.47662229998969,224.26520229999733,,,,,,,,,,,quicsb,001,fr,0,2022-07-21_14h56.39.686,Continuous,2022.1.1,34.86564349927824,
3,0,3,0,4,0,4,0,,,,,,,,1.5394631862204,none,898.0,2.572332949855672,5.5337881765969e-05,0,39,[],0.019297040009405464,0.219045140009257,['space'],226.89252139999007,226.89252139999007,0.219045140009257,1.758508326229657,227.10903529998905,226.89252139999007,,,,[-1.8201636999874609],,,,,,,quicsb,001,fr,0,2022-07-21_14h56.39.686,Continuous,2022.1.1,34.86564349927824,
3,0,3,0,5,0,5,0,,,,,,,,2.4544451502122033,none,318.0,3.732442142592948,0.00015036570818823336,0,40,[],0.021791639999719337,None,['space'],228.64287739999418,228.64287739999418,0.22346753999590874,2.677912690208112,228.8525171999936,228.64287739999418,,,,[-1.3147113000013633],,,,,,,quicsb,001,fr,0,2022-07-21_14h56.39.686,Continuous,2022.1.1,34.86564349927824,
3,0,3,0,6,0,6,0,,,,,,,,1.1875227521269427,none,713.0,1.2812889145017081,5.086183033084713e-05,0,41,[],0.02135994000127539,None,['space'],231.31037799999467,231.31037799999467,0.22687364000012167,1.4143963921270644,231.5207284999924,231.31037799999467,,,,[-2.149911400003475],,,,,,,quicsb,001,fr,0,2022-07-21_14h56.39.686,Continuous,2022.1.1,34.86564349927824,
3,0,3,0,7,0,7,0,,,,,,,,1.585993892681244,none,126.0,2.8211856636240986,0.0009877481208344476,0,42,[],0.02173543999379035,None,None,232.7088453999895,232.7088453999895,0.2290892399905715,1.8150831326718155,232.92616239999188,232.7088453999895,,,,,,,,,,,quicsb,001,fr,0,2022-07-21_14h56.39.686,Continuous,2022.1.1,34.86564349927824,
4,0,4,0,0,0,0,0,,,,,0.16666666666666666,237.48543079999217,None,1.793721171587065,frequency,758.0,-3.279988322770447,2.760997670483863e-05,0,26,[],0.018537340001785196,None,None,238.50223749999714,None,0.21967714000493288,2.013398311591998,238.72111949999817,None,234.5064687999984,None,,,,,,,,,quicsb,001,fr,0,2022-07-21_14h56.39.686,Continuous,2022.1.1,34.86564349927824,
4,0,4,0,1,0,1,0,,,,,,,,1.473244191817316,frequency,675.0,-2.5601552111541817,3.5164482093071265e-05,0,27,[],0.02121684000303503,None,None,240.51756779999414,240.51756779999414,0.22740884000086226,1.7006530318181783,240.7387369999924,240.51756779999414,,,,,,,,,,,quicsb,001,fr,0,2022-07-21_14h56.39.686,Continuous,2022.1.1,34.86564349927824,
4,0,4,0,2,0,2,0,,,,,,,,1.3573964851567828,frequency,601.0,-4.746322356375804,3.2244129231909535e-05,0,28,[],0.021094340001582168,None,None,242.20850179999252,242.20850179999252,0.22542534000240266,1.5828218251591855,242.42861849999463,242.20850179999252,,,,,,,,,,,quicsb,001,fr,0,2022-07-21_14h56.39.686,Continuous,2022.1.1,34.86564349927824,
4,0,4,0,3,0,3,0,,,,,,,,2.188604837810051,frequency,535.0,-6.9806451531032865,2.9540027113525944e-05,0,29,[],0.01467123998736497,0.21063073999539483,None,243.7828739999968,243.7828739999968,0.21063073999539483,2.3992355778054457,243.99738909999724,243.7828739999968,,,,,,,,,,,quicsb,001,fr,0,2022-07-21_14h56.39.686,Continuous,2022.1.1,34.86564349927824,
4,0,4,0,4,0,4,0,,,,,,,,1.8543136155360533,frequency,477.0,-3.3160005877122236,4.957420472939048e-05,0,30,[],0.018031840008916333,0.21641104001901112,None,246.18055910000112,246.18055910000112,0.21641104001901112,2.0707246555550647,246.39655920000223,246.18055910000112,,,,,,,,,,,quicsb,001,fr,0,2022-07-21_14h56.39.686,Continuous,2022.1.1,34.86564349927824,
4,0,4,0,5,0,5,0,,,,,,,,1.9139323192830722,frequency,425.0,-5.933488369374221,3.801785594525743e-05,0,31,[],0.021247040000162087,None,None,248.24664099999063,248.24664099999063,0.2252993400034029,2.139231659286475,248.4546507999912,248.24664099999063,,,,,,,,,,,quicsb,001,fr,0,2022-07-21_14h56.39.686,Continuous,2022.1.1,34.86564349927824,
4,0,4,0,6,0,6,0,,,,,,,,1.557411867502793,frequency,379.0,-8.0,3.264724102951903e-05,0,32,[],0.02159704000223428,None,['space'],250.36703029999626,250.36703029999626,0.2268646400043508,1.7842765075071438,250.5826670999959,250.36703029999626,,,,[-0.3023981000005733],,,,,,,quicsb,001,fr,0,2022-07-21_14h56.39.686,Continuous,2022.1.1,34.86564349927824,
4,0,4,0,7,0,7,0,,,,,,,,2.4176077361393524,frequency,338.0,-2.11287078368475,7.264445912201001e-05,0,33,[],0.01395654000225477,None,None,252.1424876999954,252.1424876999954,0.21812104000127874,2.635728776140631,252.36877780000214,252.1424876999954,,,,,,,,,,,quicsb,001,fr,0,2022-07-21_14h56.39.686,Continuous,2022.1.1,34.86564349927824,
4,0,4,0,8,0,8,0,,,,,,,,1.4142117926608795,frequency,301.0,0.056500455047813425,0.0001141932622628123,0,34,[],0.021064339991426095,None,None,254.77973460000067,254.77973460000067,0.22917783999582753,1.643389632656707,254.99553519999608,254.77973460000067,,,,,,,,,,,quicsb,001,fr,0,2022-07-21_14h56.39.686,Continuous,2022.1.1,34.86564349927824,
4,0,4,0,9,0,9,0,,,,,,,,1.3219489916723501,frequency,268.0,0.3019307236076907,0.0001536630780254005,0,35,[],0.020882440003333613,None,None,256.4061720000027,256.4061720000027,0.22750613999960478,1.549455131671955,256.6178760999901,256.4061720000027,,,,,,,,,,,quicsb,001,fr,0,2022-07-21_14h56.39.686,Continuous,2022.1.1,34.86564349927824,
4,0,4,0,10,0,10,0,,,,,,,,1.1360323149331673,frequency,,,,1,35,[],0.021308340001269244,None,['space'],257.93357310000283,257.93357310000283,0.2232350400008727,1.35926735493404,258.14495570000145,257.93357310000283,,,,[-0.7816330999921774],,,,,,,quicsb,001,fr,0,2022-07-21_14h56.39.686,Continuous,2022.1.1,34.86564349927824,
4,0,4,0,11,0,11,0,,,,,,,,2.2042233840760073,frequency,213.0,-0.7316972343658679,0.00022058555497942434,0,36,[],0.018317540001589805,None,None,259.2785533999995,259.2785533999995,0.21672774000035133,2.4209511240763586,259.4972681999934,259.2785533999995,,,,,,,,,,,quicsb,001,fr,0,2022-07-21_14h56.39.686,Continuous,2022.1.1,34.86564349927824,
4,0,4,0,12,0,12,0,,,,,,,,2.4283444730836212,frequency,190.0,-3.421422543968459,0.00020358103352854546,0,37,[],0.01865444000577554,None,['space'],261.6955342000001,261.6955342000001,0.2186065400019288,2.64695101308555,261.91145379999944,261.6955342000001,,,,[-1.9351113999873633],,,,,,,quicsb,001,fr,0,2022-07-21_14h56.39.686,Continuous,2022.1.1,34.86564349927824,
4,0,4,0,13,0,13,0,,,,,,,,2.3292402240037697,frequency,169.0,-3.7237029583309598,0.00024643430280993914,0,38,[],0.020854740010690875,None,['space'],264.3421124000015,264.3421124000015,0.2287049400038086,2.5579451640075783,264.55552379999426,264.3421124000015,,,,[-2.1012610999896424],,,,,,,quicsb,001,fr,0,2022-07-21_14h56.39.686,Continuous,2022.1.1,34.86564349927824,
4,0,4,0,14,0,14,0,,,,,,,,1.926353603780845,frequency,151.0,-6.425381417203326,0.0002344393711491194,0,39,[],0.020663240007706918,None,None,266.8824215999921,266.8824215999921,0.22744964000594337,2.1538032437867884,267.09464489998936,266.8824215999921,,,,,,,,,,,quicsb,001,fr,0,2022-07-21_14h56.39.686,Continuous,2022.1.1,34.86564349927824,
5,0,5,0,0,0,0,0,,,,,,271.77272029999585,None,2.1986352186743345,time,2701.0,-3.4437812121045472,4.937813069825812e-05,0,26,[],0.024363539996556938,0.2205690400005551,None,272.8073962999915,None,0.2205690400005551,2.4192042586748896,273.0089215999906,None,269.019744899997,None,"[0.5833333333333334, 0.5833333333333334, 0.5833333333333334, 0.16666666666666666, 0.16666666666666666, 0.16666666666666666, 0.16666666666666666, 0.16666666666666666, 0.16666666666666666, 0.5833333333333334, 0.5833333333333334, 0.5833333333333334, 0.3333333333333333, 0.16666666666666666, 0.5833333333333334]",,,,,,,,quicsb,001,fr,0,2022-07-21_14h56.39.686,Continuous,2022.1.1,34.86564349927824,
5,0,5,0,1,0,1,0,,,,,,,,2.1986352186743345,time,568.0,-1.3753394717675707,5.192762735558724e-05,0,27,[],0.01964204000250902,None,None,275.2105118999898,275.2105118999898,0.2220657400030177,2.4207009586773522,275.4249887999904,275.2105118999898,,,,,,,,,,,quicsb,001,fr,0,2022-07-21_14h56.39.686,Continuous,2022.1.1,34.86564349927824,
5,0,5,0,2,0,2,0,,,,,,,,2.1986352186743345,time,239.0,-7.981741963017699,7.541407175608727e-05,0,28,[],0.013063539998256601,None,None,277.62052640000184,277.62052640000184,0.21302874000684824,2.4116639586811828,277.8366479999968,277.62052640000184,,,,,,,,,,,quicsb,001,fr,0,2022-07-21_14h56.39.686,Continuous,2022.1.1,34.86564349927824,
5,0,5,0,3,0,3,0,,,,,,,,2.1986352186743345,time,1275.0,4.852593148846246,9.4216335439407e-05,0,29,[],0.013032839997322299,None,None,280.0400893999904,280.0400893999904,0.21138723999320064,2.410022458667535,280.25559559999965,280.0400893999904,,,,,,,,,,,quicsb,001,fr,0,2022-07-21_14h56.39.686,Continuous,2022.1.1,34.86564349927824,
5,0,5,0,4,0,4,0,,,,,,,,2.1986352186743345,time,190.0,-7.407293885161405,0.00012866005946098781,0,30,[],0.020378739995067008,None,['space'],282.46112899998843,282.46112899998843,0.22176934000162873,2.4204045586759633,282.6719902999903,282.46112899998843,,,,[-2.012940200002049],,,,,,,quicsb,001,fr,0,2022-07-21_14h56.39.686,Continuous,2022.1.1,34.86564349927824,
5,0,5,0,5,0,5,0,,,,,,,,2.1986352186743345,time,301.0,-6.0243604500301835,5.670187689561377e-05,0,31,[],0.01641204000043217,None,None,284.87116339999193,284.87116339999193,0.21295724000083283,2.4115924586751674,285.0921684999921,284.87116339999193,,,,,,,,,,,quicsb,001,fr,0,2022-07-21_14h56.39.686,Continuous,2022.1.1,34.86564349927824,
5,0,5,0,6,0,6,0,,,,,,,,2.1986352186743345,time,1606.0,-1.343590348526856,4.8849352451639596e-05,0,32,[],0.017320140002993867,None,None,287.29049010000017,287.29049010000017,0.21503414001199417,2.4136693586863287,287.50708759999543,287.29049010000017,,,,,,,,,,,quicsb,001,fr,0,2022-07-21_14h56.39.686,Continuous,2022.1.1,34.86564349927824,
5,0,5,0,7,0,7,0,,,,,,,,2.1986352186743345,time,338.0,1.0388080842342275,0.00010442066097827243,0,33,[],0.018383040020125918,None,None,289.70883350000076,289.70883350000076,0.21816364002006594,2.4167988586944005,289.92449599999236,289.70883350000076,,,,,,,,,,,quicsb,001,fr,0,2022-07-21_14h56.39.686,Continuous,2022.1.1,34.86564349927824,
5,0,5,0,8,0,8,0,,,,,,,,2.1986352186743345,time,213.0,0.0250967004859749,0.00024066712284900115,0,34,[],0.012354039994534105,None,None,292.1192235999915,292.1192235999915,0.20843273999344092,2.4070679586677755,292.33968289999757,292.1192235999915,,,,,,,,,,,quicsb,001,fr,0,2022-07-21_14h56.39.686,Continuous,2022.1.1,34.86564349927824,
5,0,5,0,9,0,9,0,,,,,,,,2.1986352186743345,time,379.0,-8.0,3.264724102951903e-05,0,35,[],0.02010124000662472,None,['space'],294.54062069999054,294.54062069999054,0.2240698399982648,2.4227050586725993,294.75037959999463,294.54062069999054,,,,[-1.9400586999981897],,,,,,,quicsb,001,fr,0,2022-07-21_14h56.39.686,Continuous,2022.1.1,34.86564349927824,
5,0,5,0,10,0,10,0,,,,,,,,2.1986352186743345,time,851.0,-7.969556018540261,1.5907325004237714e-05,0,36,[],0.020010240012197755,None,None,296.9482847999898,296.9482847999898,0.2215175400051521,2.4201527586794866,297.1564597999968,296.9482847999898,,,,,,,,,,,quicsb,001,fr,0,2022-07-21_14h56.39.686,Continuous,2022.1.1,34.86564349927824,
5,0,5,0,11,0,11,0,,,,,,,,2.1986352186743345,time,,,,1,36,[],0.011564140004338697,None,None,299.36113920000207,299.36113920000207,0.2082017400098266,2.406836958684161,299.5792805999954,299.36113920000207,,,,,,,,,,,quicsb,001,fr,0,2022-07-21_14h56.39.686,Continuous,2022.1.1,34.86564349927824,
5,0,5,0,12,0,12,0,,,,,,,,2.1986352186743345,time,1803.0,4.760918080582627,0.00011403570224014956,0,37,[],0.021307939998223446,None,None,301.777826599995,301.777826599995,0.2307991400011815,2.429434358675516,301.98778070000117,301.777826599995,,,,,,,,,,,quicsb,001,fr,0,2022-07-21_14h56.39.686,Continuous,2022.1.1,34.86564349927824,
5,0,5,0,13,0,13,0,,,,,,,,2.1986352186743345,time,268.0,-1.4403812641921538,0.00012573434650015277,0,38,[],0.019985740014817566,None,None,304.1892703999911,304.1892703999911,0.22320424001372885,2.4218394586880634,304.3963567000028,304.1892703999911,,,,,,,,,,,quicsb,001,fr,0,2022-07-21_14h56.39.686,Continuous,2022.1.1,34.86564349927824,
6,0,6,0,0,0,0,0,,,,,0.5833333333333334,309.3847090999916,None,1.9688896111835255,frequency,7379.0,1.1156571921431895,0.0001850165388186037,0,40,[],0.02364703999774065,None,None,310.4009625999897,None,0.2407045400032075,2.209594151186733,310.6144091000024,None,306.6077065999998,None,,,,,,,,,quicsb,001,fr,0,2022-07-21_14h56.39.686,Continuous,2022.1.1,34.86564349927824,
6,0,6,0,1,0,1,0,,,,,,,,2.430084189014268,frequency,4925.0,1.0,0.0001655937853633201,0,41,[],0.017628239991609007,None,['space'],312.5866379999934,312.5866379999934,0.2321182399900863,2.6622024290043544,312.80349969999224,312.5866379999934,,,,[-1.7615894000045955],,,,,,,quicsb,001,fr,0,2022-07-21_14h56.39.686,Continuous,2022.1.1,34.86564349927824,
6,0,6,0,2,0,2,0,,,,,,,,1.8305631441089714,frequency,3287.0,-0.016273921213115106,7.129043008965046e-05,0,42,[],0.019823139999061823,None,['space'],315.2302092999889,315.2302092999889,0.23910753999371082,2.0696706841026824,315.4548702000029,315.2302092999889,,,,[-2.34228249998705],,,,,,,quicsb,001,fr,0,2022-07-21_14h56.39.686,Continuous,2022.1.1,34.86564349927824,
6,0,6,0,3,0,3,0,,,,,,,,2.5066791644611732,frequency,2194.0,1.9134967577183533,9.860943834406236e-05,0,43,[],0.01973483999609016,None,None,317.2786621999985,317.2786621999985,0.2292538399924524,2.7359330044536256,317.4914043000026,317.2786621999985,,,,,,,,,,,quicsb,001,fr,0,2022-07-21_14h56.39.686,Continuous,2022.1.1,34.86564349927824,
6,0,6,0,4,0,4,0,,,,,,,,2.1680666599503238,frequency,,,,1,43,[],0.015273640005034395,None,None,319.9955334999977,319.9955334999977,0.2212651400041068,2.3893317999544306,320.2160950999969,319.9955334999977,,,,,,,,,,,quicsb,001,fr,0,2022-07-21_14h56.39.686,Continuous,2022.1.1,34.86564349927824,
6,0,6,0,5,0,5,0,,,,,,,,1.4830387169508703,frequency,977.0,2.4909911162346643,5.781315740283787e-05,0,44,[],0.02140594000229612,None,None,322.38584190000256,322.38584190000256,0.23400094000680838,1.7170396569576787,322.60253139999986,322.38584190000256,,,,,,,,,,,quicsb,001,fr,0,2022-07-21_14h56.39.686,Continuous,2022.1.1,34.86564349927824,
6,0,6,0,6,0,6,0,,,,,,,,1.7074705858524701,frequency,652.0,0.8353959525115607,5.420599973271173e-05,0,45,[],0.016643139999359846,None,None,324.07894969999325,324.07894969999325,0.21599214000161737,1.9234627258540875,324.3002176000009,324.07894969999325,,,,,,,,,,,quicsb,001,fr,0,2022-07-21_14h56.39.686,Continuous,2022.1.1,34.86564349927824,
6,0,6,0,7,0,7,0,,,,,,,,1.593464323089807,frequency,435.0,1.1157582656287635,8.501429993270803e-05,0,46,[],0.019690640008775517,None,None,326.00540490000276,326.00540490000276,0.22595644000102766,1.8194207630908346,326.21773530000064,326.00540490000276,,,,,,,,,,,quicsb,001,fr,0,2022-07-21_14h56.39.686,Continuous,2022.1.1,34.86564349927824,
6,0,6,0,8,0,8,0,,,,,,,,2.6694702206930114,frequency,290.0,1.238627037720129,0.0001442815314975031,0,47,[],0.0197330400114879,None,None,327.81351199999335,327.81351199999335,0.22723354000481777,2.896703760697829,328.03145329999097,327.81351199999335,,,,,,,,,,,quicsb,001,fr,0,2022-07-21_14h56.39.686,Continuous,2022.1.1,34.86564349927824,
6,0,6,0,9,0,9,0,,,,,,,,1.222173855456923,frequency,194.0,0.7879614863256219,0.000314575403766411,0,48,[],0.01964414000394754,None,['space'],330.6993524999998,330.6993524999998,0.22689963999437168,1.4490734954512947,330.9216684999992,330.6993524999998,,,,[-2.443296500001452],,,,,,,quicsb,001,fr,0,2022-07-21_14h56.39.686,Continuous,2022.1.1,34.86564349927824,
7,0,7,0,0,0,0,0,,,,,0.3333333333333333,335.88252099999227,None,2.462711184738271,frequency,5279.0,7.931640746329275,0.0003550320363281513,0,49,[],0.02439574000891298,None,None,336.9170097999886,None,0.25015964001067914,2.71287082474895,337.14508279999427,None,332.1379205999983,None,,,,,,,,,quicsb,001,fr,0,2022-07-21_14h56.39.686,Continuous,2022.1.1,34.86564349927824,
7,0,7,0,1,0,1,0,,,,,,,,2.8594529898789407,frequency,4190.0,-0.518587480827968,9.139069148461568e-05,0,50,[],0.01483424000616651,None,['space'],339.5971681999945,339.5971681999945,0.21001004001300316,3.069463029891944,339.8160965999996,339.5971681999945,,,,[-2.2850709999911487],,,,,,,quicsb,001,fr,0,2022-07-21_14h56.39.686,Continuous,2022.1.1,34.86564349927824,
7,0,7,0,2,0,2,0,,,,,,,,1.5859306692326134,frequency,3326.0,8.031174377045495,0.00018178020882180456,0,51,[],0.006922339991433546,None,['space'],342.6854616999917,342.6854616999917,0.20124383999791462,1.787174509230528,342.90227839999716,342.6854616999917,,,,[-2.5566462999995565],,,,,,,quicsb,001,fr,0,2022-07-21_14h56.39.686,Continuous,2022.1.1,34.86564349927824,
7,0,7,0,3,0,3,0,,,,,,,,2.250994016757895,frequency,2640.0,5.944709311257308,0.00015304772164209608,0,52,[],0.01952604000689462,None,['space'],344.493241499993,344.493241499993,0.2244499400112545,2.4754439567691495,344.70484359998954,344.493241499993,,,,[-1.4607473999931244],,,,,,,quicsb,001,fr,0,2022-07-21_14h56.39.686,Continuous,2022.1.1,34.86564349927824,
7,0,7,0,4,0,4,0,,,,,,,,2.7645753579122854,frequency,2095.0,5.696890108178831,0.00014820765871671347,0,53,[],0.0149409400037257,None,"['space', 'space']",346.95603590000246,346.95603590000246,0.2134992399951443,2.9780745979074297,347.17521279999346,346.95603590000246,,,,"[-1.995807599989348, 0.16505140000663232]",,,,,,,quicsb,001,fr,0,2022-07-21_14h56.39.686,Continuous,2022.1.1,34.86564349927824,
7,0,7,0,5,0,5,0,,,,,,,,2.538137820898363,frequency,,,,1,53,[],0.01587724000273738,0.21242294000694528,None,349.94005269999616,349.94005269999616,0.21242294000694528,2.750560760905308,350.15851549999206,349.94005269999616,,,,,,,,,,,quicsb,001,fr,0,2022-07-21_14h56.39.686,Continuous,2022.1.1,34.86564349927824,
7,0,7,0,6,0,6,0,,,,,,,,1.299640236695373,frequency,1320.0,15.0,0.0002967551315828762,0,54,[],0.01569673999620136,0.2075491399882594,None,352.69644040000276,352.69644040000276,0.2075491399882594,1.5071893766836324,352.91271569998935,352.69644040000276,,,,,,,,,,,quicsb,001,fr,0,2022-07-21_14h56.39.686,Continuous,2022.1.1,34.86564349927824,
7,0,7,0,7,0,7,0,,,,,,,,1.116906552224747,frequency,1048.0,6.769380590106162,0.00010041401580673216,0,55,[],0.01904283999465406,None,['space'],354.20467369999096,354.20467369999096,0.23076833999948576,1.3476748922242328,354.42106120000244,354.20467369999096,,,,[-1.092591699998593],,,,,,,quicsb,001,fr,0,2022-07-21_14h56.39.686,Continuous,2022.1.1,34.86564349927824,
7,0,7,0,8,0,8,0,,,,,,,,1.7437319628183299,frequency,832.0,8.428433964528462,0.00010364929408428207,0,56,[],0.014312940009403974,None,['space'],355.53293689999555,355.53293689999555,0.22182484000222757,1.9655568028205574,355.7616333999904,355.53293689999555,,,,[-0.9896623999957228],,,,,,,quicsb,001,fr,0,2022-07-21_14h56.39.686,Continuous,2022.1.1,34.86564349927824,
7,0,7,0,9,0,9,0,,,,,,,,1.3294513755746908,frequency,660.0,1.8647536333488417,6.015650441093399e-05,0,57,[],0.011880139994900674,0.20242144000076223,['space'],357.5060191999946,357.5060191999946,0.20242144000076223,1.531872815575453,357.7187550999952,357.5060191999946,,,,[-1.5943342999962624],,,,,,,quicsb,001,fr,0,2022-07-21_14h56.39.686,Continuous,2022.1.1,34.86564349927824,
7,0,7,0,10,0,10,0,,,,,,,,2.4717564331706363,frequency,524.0,3.3386999701189315,9.94324377832247e-05,0,58,[],0.015570140007184818,None,None,359.0508389999886,359.0508389999886,0.22762464001425542,2.6993810731848917,359.26715949999925,359.0508389999886,,,,,,,,,,,quicsb,001,fr,0,2022-07-21_14h56.39.686,Continuous,2022.1.1,34.86564349927824,
7,0,7,0,11,0,11,0,,,,,,,,1.2929327527422174,frequency,416.0,6.850091215703636,0.00016665243208081645,0,59,[],0.014280340008554049,0.20020664000185207,['space'],361.74104409999563,361.74104409999563,0.20020664000185207,1.4931393927440695,361.9432336999889,361.74104409999563,,,,[-2.108724000005168],,,,,,,quicsb,001,fr,0,2022-07-21_14h56.39.686,Continuous,2022.1.1,34.86564349927824,
7,0,7,0,12,0,12,0,,,,,,,,2.8859906247250513,frequency,330.0,10.17545176333371,0.00030566547014431773,0,60,[],0.01579284000035841,None,['space'],363.23880789999384,363.23880789999384,0.2236932399973739,3.109683864722425,363.45501639999566,363.23880789999384,,,,[-1.0230173999880208],,,,,,,quicsb,001,fr,0,2022-07-21_14h56.39.686,Continuous,2022.1.1,34.86564349927824,
7,0,7,0,13,0,13,0,,,,,,,,2.566407125288839,frequency,262.0,3.757670542203362,0.00023854470566446465,0,61,[],0.014579540002159774,None,['space'],366.3446460999985,366.3446460999985,0.2116516400128603,2.7780587653016995,366.5611416999891,366.3446460999985,,,,[-2.801476900000125],,,,,,,quicsb,001,fr,0,2022-07-21_14h56.39.686,Continuous,2022.1.1,34.86564349927824,
7,0,7,0,14,0,14,0,,,,,,,,2.0686159143605676,frequency,208.0,14.56099064309002,0.001335326748270802,0,62,[],0.014433040007133968,None,['space'],369.13087280000036,369.13087280000036,0.21278094001172576,2.2813968543722933,369.34944439999526,369.13087280000036,,,,[-2.258188499996322],,,,,,,quicsb,001,fr,0,2022-07-21_14h56.39.686,Continuous,2022.1.1,34.86564349927824,
8,0,8,0,0,0,0,0,,,,,,375.2738468999887,None,1.2445200070266045,time,500.0,-7.0,3.191317430952745e-05,0,39,[],0.024653239990584552,None,None,376.29805789999955,None,0.236368539990508,1.4808885470171125,376.51795870000205,None,371.42161710000073,None,"[0.3333333333333333, 0.3333333333333333, 0.3333333333333333, 0.3333333333333333, 0.5833333333333334, 0.5833333333333334, 0.3333333333333333, 0.3333333333333333, 0.16666666666666666, 0.3333333333333333, 0.5833333333333334, 0.16666666666666666, 0.5833333333333334, 0.3333333333333333, 0.5833333333333334]",,,,,,,,quicsb,001,fr,0,2022-07-21_14h56.39.686,Continuous,2022.1.1,34.86564349927824,
8,0,8,0,1,0,1,0,,,,,,,,1.2445200070266045,time,2998.0,-4.109562339022328,3.423539322718015e-05,0,40,[],0.014208840002538636,None,None,377.75666159999673,377.75666159999673,0.21238173999881838,1.4569017470254229,377.96884200000204,377.75666159999673,,,,,,,,,,,quicsb,001,fr,0,2022-07-21_14h56.39.686,Continuous,2022.1.1,34.86564349927824,
8,0,8,0,2,0,2,0,,,,,,,,1.2445200070266045,time,445.0,-6.386107652377488,3.559757653799883e-05,0,41,[],0.017938539982424118,None,None,379.2195762999909,379.2195762999909,0.22234023998316843,1.466860247009773,379.4369818999985,379.2195762999909,,,,,,,,,,,quicsb,001,fr,0,2022-07-21_14h56.39.686,Continuous,2022.1.1,34.86564349927824,
8,0,8,0,3,0,3,0,,,,,,,,1.2445200070266045,time,1588.0,1.379709171151724,6.533220902144793e-05,0,42,[],0.01453043999208603,None,None,380.67647099999886,380.67647099999886,0.21289953999803402,1.4574195470246385,380.88900289998855,380.67647099999886,,,,,,,,,,,quicsb,001,fr,0,2022-07-21_14h56.39.686,Continuous,2022.1.1,34.86564349927824,
8,0,8,0,4,0,4,0,,,,,,,,1.2445200070266045,time,944.0,-6.563629362775053,1.9943754140004725e-05,0,43,[],0.016176539997104555,None,None,382.1402260999894,382.1402260999894,0.22261604000232182,1.4671360470289263,382.35643329999584,382.1402260999894,,,,,,,,,,,quicsb,001,fr,0,2022-07-21_14h56.39.686,Continuous,2022.1.1,34.86564349927824,
8,0,8,0,5,0,5,0,,,,,,,,1.2445200070266045,time,280.0,-1.4496324656138757,0.0001148417142190929,0,44,[],0.012915140003315173,None,None,383.5980770999886,383.5980770999886,0.2108867400093004,1.455406747035905,383.81225319999794,383.5980770999886,,,,,,,,,,,quicsb,001,fr,0,2022-07-21_14h56.39.686,Continuous,2022.1.1,34.86564349927824,
8,0,8,0,6,0,6,0,,,,,,,,1.2445200070266045,time,1060.0,1.7958239005834011,5.72563269999974e-05,0,45,[],0.017352640003082342,None,['space'],385.05957789999957,385.05957789999957,0.22333234001416713,1.4678523470407716,385.2787520999991,385.05957789999957,,,,[-1.0670319000055315],,,,,,,quicsb,001,fr,0,2022-07-21_14h56.39.686,Continuous,2022.1.1,34.86564349927824,
8,0,8,0,7,0,7,0,,,,,,,,1.2445200070266045,time,125.0,-3.717786393291549,0.00047106483425759247,0,46,[],0.01384004000283312,None,None,386.5171784999984,386.5171784999984,0.213000040006591,1.4575200470331955,386.73356039999635,386.5171784999984,,,,,,,,,,,quicsb,001,fr,0,2022-07-21_14h56.39.686,Continuous,2022.1.1,34.86564349927824,
8,0,8,0,8,0,8,0,,,,,,,,1.2445200070266045,time,353.0,-2.194592911701655,6.893948793956255e-05,0,47,[],0.016655739993439056,None,None,387.978638399989,387.978638399989,0.21709884000301827,1.4616188470296227,388.19912509999995,387.978638399989,,,,,,,,,,,quicsb,001,fr,0,2022-07-21_14h56.39.686,Continuous,2022.1.1,34.86564349927824,
8,0,8,0,9,0,9,0,,,,,,,,1.2445200070266045,time,630.0,-3.9743100307460657,3.237833430302629e-05,0,48,[],0.009954140012268908,0.20411794001120143,None,389.440895199994,389.440895199994,0.20411794001120143,1.448637947037806,389.652806699989,389.440895199994,,,,,,,,,,,quicsb,001,fr,0,2022-07-21_14h56.39.686,Continuous,2022.1.1,34.86564349927824,
8,0,8,0,10,0,10,0,,,,,,,,1.2445200070266045,time,,,,1,48,[],0.016324739990523085,None,None,390.89873519999674,390.89873519999674,0.22128394000174012,1.4658039470283446,391.11403929999506,390.89873519999674,,,,,,,,,,,quicsb,001,fr,0,2022-07-21_14h56.39.686,Continuous,2022.1.1,34.86564349927824,
8,0,8,0,11,0,11,0,,,,,,,,1.2445200070266045,time,187.0,0.49726540923219265,0.0003312174865389871,0,49,[],0.014968939998652786,None,None,392.3572126999934,392.3572126999934,0.21479654000722803,1.4593165470338325,392.572196299996,392.3572126999934,,,,,,,,,,,quicsb,001,fr,0,2022-07-21_14h56.39.686,Continuous,2022.1.1,34.86564349927824,
9,0,9,0,0,0,0,0,,,,,,398.0155025999993,None,1.0199566947646486,none,1845.0,1.7201070209042353,8.266442299778444e-05,0,43,[],0.02443263999884948,None,None,399.0281246999948,None,0.24039373999403324,1.2603504347586818,399.2416705999931,None,393.81891609999,None,"[0.3333333333333333, 0.5833333333333334, 0.5833333333333334, 0.3333333333333333, 0.5833333333333334, 0.5833333333333334, 0.3333333333333333, 0.16666666666666666, 0.3333333333333333, 0.5833333333333334, 0.5833333333333334, 0.16666666666666666, 0.3333333333333333, 0.5833333333333334, 0.16666666666666666]",,,,,,,,quicsb,001,fr,0,2022-07-21_14h56.39.686,Continuous,2022.1.1,34.86564349927824,
9,0,9,0,1,0,1,0,,,,,,,,1.0842124019831663,none,3483.0,0.8854992658552359,8.289955961903242e-05,0,44,[],0.01406524000049103,None,None,400.2628643999924,400.2628643999924,0.21365994001098443,1.2978723419941507,400.4763183999894,400.2628643999924,,,,,,,,,,,quicsb,001,fr,0,2022-07-21_14h56.39.686,Continuous,2022.1.1,34.86564349927824,
9,0,9,0,2,0,2,0,,,,,,,,1.6704928634727059,none,977.0,1.3768685021607643,5.085346594524686e-05,0,45,[],0.01205763999314513,0.20890063999104314,None,401.56812199999695,401.56812199999695,0.20890063999104314,1.879393503463749,401.78295680000156,401.56812199999695,,,,,,,,,,,quicsb,001,fr,0,2022-07-21_14h56.39.686,Continuous,2022.1.1,34.86564349927824,
9,0,9,0,3,0,3,0,,,,,,,,2.486021663887718,none,3909.0,0.4660900198595552,8.688204070469919e-05,0,46,[],0.018302840006072074,None,None,403.45499459998973,403.45499459998973,0.2231936400057748,2.709215303893493,403.6762694999925,403.45499459998973,,,,,,,,,,,quicsb,001,fr,0,2022-07-21_14h56.39.686,Continuous,2022.1.1,34.86564349927824,
9,0,9,0,4,0,4,0,,,,,,,,2.436445764130026,none,7379.0,1.7685194176339079,0.00019945901198490068,0,47,[],0.018032539999694563,None,['space'],406.158703299996,406.158703299996,0.22886263999680523,2.665308404126831,406.376488599999,406.158703299996,,,,[-2.3262565000040922],,,,,,,quicsb,001,fr,0,2022-07-21_14h56.39.686,Continuous,2022.1.1,34.86564349927824,
9,0,9,0,5,0,5,0,,,,,,,,1.4174794406947924,none,1231.0,5.405787744985986,0.00010008776689987973,0,48,[],0.00977324000268709,None,['space'],408.8115983999887,408.8115983999887,0.20728673999838065,1.624766180693173,409.02844129998994,408.8115983999887,,,,[-2.26726829999825],,,,,,,quicsb,001,fr,0,2022-07-21_14h56.39.686,Continuous,2022.1.1,34.86564349927824,
9,0,9,0,6,0,6,0,,,,,,,,2.9325313116985017,none,2764.0,-0.7168557888358205,6.398488766100198e-05,0,49,[],0.017585139998118393,None,['space'],410.4518639000016,410.4518639000016,0.22203663999971468,3.1545679516982164,410.6648729000008,410.4518639000016,,,,[-1.1558205999899656],,,,,,,quicsb,001,fr,0,2022-07-21_14h56.39.686,Continuous,2022.1.1,34.86564349927824,
9,0,9,0,7,0,7,0,,,,,,,,1.5538348799346675,none,4925.0,1.0,0.0001655937853633201,0,50,[],0.014170840004226193,None,None,413.59309779999603,413.59309779999603,0.2140927400032524,1.76792761993792,413.80748829999357,413.59309779999603,,,,,,,,,,,quicsb,001,fr,0,2022-07-21_14h56.39.686,Continuous,2022.1.1,34.86564349927824,
9,0,9,0,8,0,8,0,,,,,,,,2.617579611541692,none,652.0,-0.06976421569529656,4.884154013253361e-05,0,51,[],0.010863040006370284,None,['space'],415.3747766000015,415.3747766000015,0.21335134000401013,2.830930951545702,415.5906888000027,415.3747766000015,,,,[-1.3747703999979421],,,,,,,quicsb,001,fr,0,2022-07-21_14h56.39.686,Continuous,2022.1.1,34.86564349927824,
9,0,9,0,9,0,9,0,,,,,,,,1.1466175428488377,none,,,,1,51,[],0.014829439998720773,None,None,418.21164119998866,418.21164119998866,0.2135962400061544,1.360213782854992,418.43087349999405,418.21164119998866,,,,,,,,,,,quicsb,001,fr,0,2022-07-21_14h56.39.686,Continuous,2022.1.1,34.86564349927824,
10,0,10,0,0,0,0,0,,,,,,422.30892579999636,None,1.5578331244839332,time,6205.0,1.354413419840386,0.00014671387893810776,0,50,[],0.024550140005885623,None,None,423.32200960000046,None,0.2195564400171861,1.7773895645011193,423.53253289998975,None,419.57860699998855,None,"[0.5833333333333334, 0.5833333333333334, 0.16666666666666666, 0.16666666666666666, 0.16666666666666666, 0.5833333333333334, 0.5833333333333334, 0.5833333333333334, 0.5833333333333334, 0.3333333333333333, 0.3333333333333333, 0.3333333333333333, 0.3333333333333333, 0.5833333333333334, 0.3333333333333333]",,,,,,,,quicsb,001,fr,0,2022-07-21_14h56.39.686,Continuous,2022.1.1,34.86564349927824,
10,0,10,0,1,0,1,0,,,,,,,,1.5578331244839332,time,,,,1,50,[],0.013338140008272603,0.20855324000876863,None,425.0868734999967,425.0868734999967,0.20855324000876863,1.7663863644927018,425.30039379998925,425.0868734999967,,,,,,,,,,,quicsb,001,fr,0,2022-07-21_14h56.39.686,Continuous,2022.1.1,34.86564349927824,
10,0,10,0,2,0,2,0,,,,,,,,1.5578331244839332,time,775.0,0.2387312162701054,4.060564652871723e-05,0,51,[],0.01562603999627754,None,None,426.85730930000136,426.85730930000136,0.21553513999970164,1.7733682644836348,427.0765551999939,426.85730930000136,,,,,,,,,,,quicsb,001,fr,0,2022-07-21_14h56.39.686,Continuous,2022.1.1,34.86564349927824,
10,0,10,0,3,0,3,0,,,,,,,,1.5578331244839332,time,1464.0,5.940643375280319,9.749103086284335e-05,0,52,[],0.012411640011123382,None,None,428.6419601999951,428.6419601999951,0.2135422400169773,1.7713753645009105,428.860088299989,428.6419601999951,,,,,,,,,,,quicsb,001,fr,0,2022-07-21_14h56.39.686,Continuous,2022.1.1,34.86564349927824,
10,0,10,0,4,0,4,0,,,,,,,,1.5578331244839332,time,870.0,0.8271377731178818,4.438970510037612e-05,0,53,[],0.008709940011613071,0.1896807400189573,['space'],430.4304947999917,430.4304947999917,0.1896807400189573,1.7475138645028905,430.63213669999095,430.4304947999917,,,,[-1.3661245999974199],,,,,,,quicsb,001,fr,0,2022-07-21_14h56.39.686,Continuous,2022.1.1,34.86564349927824,
10,0,10,0,5,0,5,0,,,,,,,,1.5578331244839332,time,977.0,2.352265288774194,5.6897134830069683e-05,0,54,[],0.01726434000011068,None,None,432.19059469999047,432.19059469999047,0.2321777400065912,1.7900108644905244,432.4123352000024,432.19059469999047,,,,,,,,,,,quicsb,001,fr,0,2022-07-21_14h56.39.686,Continuous,2022.1.1,34.86564349927824,
10,0,10,0,6,0,6,0,,,,,,,,1.5578331244839332,time,4925.0,0.0,0.00014758561655417712,0,55,[],0.011235840007429942,None,['space'],433.9697143999947,433.9697143999947,0.2155177400127286,1.7733508644966618,434.19116750000103,433.9697143999947,,,,[-1.1858680000004824],,,,,,,quicsb,001,fr,0,2022-07-21_14h56.39.686,Continuous,2022.1.1,34.86564349927824,
10,0,10,0,7,0,7,0,,,,,,,,1.5578331244839332,time,690.0,0.0,4.5903087711121356e-05,0,56,[],0.01278534000448417,None,['space'],435.7471815000026,435.7471815000026,0.21687564000603743,1.7747087644899706,435.96921799999836,435.7471815000026,,,,[-1.3477820999978576],,,,,,,quicsb,001,fr,0,2022-07-21_14h56.39.686,Continuous,2022.1.1,34.86564349927824,
10,0,10,0,8,0,8,0,,,,,,,,1.5578331244839332,time,7818.0,1.893277169258095,0.00021889268007743956,0,57,[],0.016893639985937625,None,None,437.5306753999903,437.5306753999903,0.22148123999068048,1.7793143644746137,437.75143199999,437.5306753999903,,,,,,,,,,,quicsb,001,fr,0,2022-07-21_14h56.39.686,Continuous,2022.1.1,34.86564349927824,
10,0,10,0,9,0,9,0,,,,,,,,1.5578331244839332,time,3287.0,-1.6896456345875812,5.879801289070003e-05,0,58,[],0.017371039997669868,None,['space'],439.31069220000063,439.31069220000063,0.22450153999670874,1.782334664480642,439.5321122999885,439.31069220000063,,,,[-1.414637899986701],,,,,,,quicsb,001,fr,0,2022-07-21_14h56.39.686,Continuous,2022.1.1,34.86564349927824,
10,0,10,0,10,0,10,0,,,,,,,,1.5578331244839332,time,2194.0,0.6370849952477908,8.513299201986808e-05,0,59,[],0.01320824000868015,None,None,441.0871127999999,441.0871127999999,0.21025334000296425,1.7680864644868974,441.30668719999085,441.0871127999999,,,,,,,,,,,quicsb,001,fr,0,2022-07-21_14h56.39.686,Continuous,2022.1.1,34.86564349927824,
11,0,11,0,0,0,0,0,,,,,0.3333333333333333,446.6998614999902,None,1.6649895036670055,both,708.0,1.5729034633283474,5.3123928777638626e-05,0,50,[],0.02330234000692144,None,None,447.732053300002,None,0.23753204000240657,1.902521543669412,447.94476739999664,None,442.86983539999346,None,,,,,,,,,quicsb,001,fr,0,2022-07-21_14h56.39.686,Continuous,2022.1.1,34.86564349927824,
11,0,11,0,1,0,1,0,,,,,,,,1.6649895036670055,both,562.0,5.943728466141836,0.00012245677870910196,0,51,[],0.01671644000452943,None,None,449.60904109998955,449.60904109998955,0.22499524000159,1.8899847436685955,449.81866179998906,449.60904109998955,,,,,,,,,,,quicsb,001,fr,0,2022-07-21_14h56.39.686,Continuous,2022.1.1,34.86564349927824,
11,0,11,0,2,0,2,0,,,,,,,,1.6649895036670055,both,446.0,5.334622798941948,0.00013713806052927102,0,52,[],0.012965640009497292,None,['space'],451.48215119999077,451.48215119999077,0.21256333999917842,1.877552843666184,451.6999383999937,451.48215119999077,,,,[-1.474050199991325],,,,,,,quicsb,001,fr,0,2022-07-21_14h56.39.686,Continuous,2022.1.1,34.86564349927824,
11,0,11,0,3,0,3,0,,,,,,,,1.6649895036670055,both,,,,1,52,[],0.016373039994505234,None,['space'],453.3655316999939,453.3655316999939,0.21836993999022525,1.8833594436572307,453.5832049000019,453.3655316999939,,,,[-1.5333956999966176],,,,,,,quicsb,001,fr,0,2022-07-21_14h56.39.686,Continuous,2022.1.1,34.86564349927824,
11,0,11,0,4,0,4,0,,,,,,,,1.6649895036670055,both,281.0,4.288912395757723,0.0002206089271796776,0,53,[],0.011783039997681044,None,None,455.2441334999894,455.2441334999894,0.21187444000679534,1.8768639436738008,455.46335890000046,455.2441334999894,,,,,,,,,,,quicsb,001,fr,0,2022-07-21_14h56.39.686,Continuous,2022.1.1,34.86564349927824,
11,0,11,0,5,0,5,0,,,,,,,,1.6649895036670055,both,223.0,4.716598667296229,0.00037931829433958245,0,54,[],0.015757440007291734,None,['space'],457.13510709999537,457.13510709999537,0.21846754000580404,1.8834570436728095,457.3561306999909,457.13510709999537,,,,[-1.4627442999917548],,,,,,,quicsb,001,fr,0,2022-07-21_14h56.39.686,Continuous,2022.1.1,34.86564349927824,
11,0,11,0,6,0,6,0,,,,,,,,1.6649895036670055,both,177.0,6.0,0.0006967609763950413,0,55,[],0.012961839995114133,0.20836663999943994,['space'],459.023457599993,459.023457599993,0.20836663999943994,1.8733561436664454,459.2414373999927,459.023457599993,,,,[-1.5117121999937808],,,,,,,quicsb,001,fr,0,2022-07-21_14h56.39.686,Continuous,2022.1.1,34.86564349927824,
11,0,11,0,7,0,7,0,,,,,,,,1.6649895036670055,both,140.0,5.387921518286854,0.0010955755618818378,0,56,[],0.015726040001027286,None,['space'],460.9057821000024,460.9057821000024,0.2175218400079757,1.8825113436749812,461.12168389999715,460.9057821000024,,,,[-1.514093599995249],,,,,,,quicsb,001,fr,0,2022-07-21_14h56.39.686,Continuous,2022.1.1,34.86564349927824,
12,0,12,0,0,0,0,0,,,,,0.5833333333333334,465.8315020000009,None,2.3273282693481585,frequency,8000.0,5.0,0.00032282711451732784,0,63,[],0.0224695400102064,None,None,466.8489236999885,None,0.23213704001682345,2.559465309364982,467.0762726999965,None,462.7847927999974,None,,,,,,,,,quicsb,001,fr,0,2022-07-21_14h56.39.686,Continuous,2022.1.1,34.86564349927824,
12,0,12,0,1,0,1,0,,,,,,,,1.4286023845384732,frequency,5339.0,1.391261244751206,0.00016460779357644912,0,64,[],0.013379939991864376,None,['space'],469.3985213999986,469.3985213999986,0.21472863999952096,1.6433310245379942,469.6182273000013,469.3985213999986,,,,[-2.1818207999895094],,,,,,,quicsb,001,fr,0,2022-07-21_14h56.39.686,Continuous,2022.1.1,34.86564349927824,
12,0,12,0,2,0,2,0,,,,,,,,2.1948987331509207,frequency,,,,1,64,[],0.016726740010199137,None,['space'],471.0498973999929,471.0498973999929,0.22143954000785016,2.416338273158771,471.27046859999245,471.0498973999929,,,,[-1.2969038000010187],,,,,,,quicsb,001,fr,0,2022-07-21_14h56.39.686,Continuous,2022.1.1,34.86564349927824,
12,0,12,0,3,0,3,0,,,,,,,,2.400518896641384,frequency,2378.0,0.5306331870976422,8.843171894986304e-05,0,65,[],0.017104539991123602,None,None,473.4631947000016,473.4631947000016,0.22638643998652697,2.626905336627911,473.6794718000019,473.4631947000016,,,,,,,,,,,quicsb,001,fr,0,2022-07-21_14h56.39.686,Continuous,2022.1.1,34.86564349927824,
12,0,12,0,4,0,4,0,,,,,,,,1.7956961233703066,frequency,1587.0,5.314388501273971,0.0001026130394844837,0,66,[],0.011198740001418628,None,None,476.0806891999964,476.0806891999964,0.21419564000098035,2.0098917633712867,476.30158149999625,476.0806891999964,,,,,,,,,,,quicsb,001,fr,0,2022-07-21_14h56.39.686,Continuous,2022.1.1,34.86564349927824,
12,0,12,0,5,0,5,0,,,,,,,,2.5886278803434193,frequency,1059.0,4.564726846381028,7.868253178963036e-05,0,67,[],0.01616823999211192,None,['space'],478.1059876999934,478.1059876999934,0.221277739998186,2.8099056203416053,478.31797029999143,478.1059876999934,,,,[-1.2336646000039764],,,,,,,quicsb,001,fr,0,2022-07-21_14h56.39.686,Continuous,2022.1.1,34.86564349927824,
12,0,12,0,6,0,6,0,,,,,,,,2.777574967506264,frequency,707.0,1.7900010976650649,5.457621782319641e-05,0,68,[],0.01635344000533223,None,['space'],480.91134439999587,480.91134439999587,0.22170834000280593,2.99928330750907,481.1316826999973,480.91134439999587,,,,[-2.3193318999983603],,,,,,,quicsb,001,fr,0,2022-07-21_14h56.39.686,Continuous,2022.1.1,34.86564349927824,
12,0,12,0,7,0,7,0,,,,,,,,2.3486346749544973,frequency,472.0,1.1505002398401971,8.319668175134209e-05,0,69,[],0.012252939995960332,None,None,483.9041461000015,483.9041461000015,0.2135550399980275,2.562189714952525,484.12042379999184,483.9041461000015,,,,,,,,,,,quicsb,001,fr,0,2022-07-21_14h56.39.686,Continuous,2022.1.1,34.86564349927824,
12,0,12,0,8,0,8,0,,,,,,,,1.2803786325029756,frequency,315.0,3.747744197151208,0.00015182986790842183,0,70,[],0.008262939983978868,None,None,486.4779927999916,486.4779927999916,0.20343473998946138,1.483813372492437,486.6936846999888,486.4779927999916,,,,,,,,,,,quicsb,001,fr,0,2022-07-21_14h56.39.686,Continuous,2022.1.1,34.86564349927824,
13,0,13,0,0,0,0,0,,,,,,491.4142728000006,None,1.1661840775564098,time,,,,1,59,[],0.02420894001261331,None,None,492.4288933999924,None,0.24856344000727404,1.4147475175636839,492.65742989999126,None,487.9800271999993,None,"[0.5833333333333334, 0.5833333333333334, 0.3333333333333333, 0.5833333333333334, 0.16666666666666666, 0.3333333333333333, 0.16666666666666666, 0.3333333333333333, 0.16666666666666666, 0.5833333333333334, 0.3333333333333333, 0.3333333333333333, 0.3333333333333333, 0.5833333333333334, 0.3333333333333333]",,,,,,,,quicsb,001,fr,0,2022-07-21_14h56.39.686,Continuous,2022.1.1,34.86564349927824,
13,0,13,0,1,0,1,0,,,,,,,,1.1661840775564098,time,208.0,-0.321136150705148,0.00024070283690322746,0,60,[],0.01691694001783617,None,None,493.8219603999896,493.8219603999896,0.22443184001895133,1.3906159175753612,494.034276099992,493.8219603999896,,,,,,,,,,,quicsb,001,fr,0,2022-07-21_14h56.39.686,Continuous,2022.1.1,34.86564349927824,
13,0,13,0,2,0,2,0,,,,,,,,1.1661840775564098,time,554.0,-0.8888086361658242,5.689087827073055e-05,0,61,[],0.012228739986312576,None,['space'],495.200001899997,495.200001899997,0.2161370399990119,1.3823211175554218,495.4152583999967,495.200001899997,,,,[-0.943569099996239],,,,,,,quicsb,001,fr,0,2022-07-21_14h56.39.686,Continuous,2022.1.1,34.86564349927824,
13,0,13,0,3,0,3,0,,,,,,,,1.1661840775564098,time,165.0,-1.0,0.0003501826869333629,0,62,[],0.011915039998712018,0.20784354000352323,None,496.57936449999397,496.57936449999397,0.20784354000352323,1.374027617559933,496.79811750000226,496.57936449999397,,,,,,,,,,,quicsb,001,fr,0,2022-07-21_14h56.39.686,Continuous,2022.1.1,34.86564349927824,
13,0,13,0,4,0,4,0,,,,,,,,1.1661840775564098,time,698.0,-0.9991146956149608,4.029002671706674e-05,0,63,[],0.014048539989744313,None,['space'],497.96182209999824,497.96182209999824,0.21913933999894653,1.3853234175553564,498.1832827999897,497.96182209999824,,,,[-0.8418134999956237],,,,,,,quicsb,001,fr,0,2022-07-21_14h56.39.686,Continuous,2022.1.1,34.86564349927824,
13,0,13,0,5,0,5,0,,,,,,,,1.1661840775564098,time,349.0,-0.6076102008266431,8.372764852378707e-05,0,64,[],0.011411940009566024,None,None,499.35486759999185,499.35486759999185,0.20900964000611566,1.3751937175625255,499.57922079999116,499.35486759999185,,,,,,,,,,,quicsb,001,fr,0,2022-07-21_14h56.39.686,Continuous,2022.1.1,34.86564349927824,
13,0,13,0,6,0,6,0,,,,,,,,1.1661840775564098,time,233.0,0.6542315007771035,0.00021649675170843643,0,65,[],0.008658140010084026,None,['space'],500.74283819999255,500.74283819999255,0.2077023400051985,1.3738864175616083,500.96501519999583,500.74283819999255,,,,[-0.7582879999972647],,,,,,,quicsb,001,fr,0,2022-07-21_14h56.39.686,Continuous,2022.1.1,34.86564349927824,
13,0,13,0,7,0,7,0,,,,,,,,1.1661840775564098,time,147.0,0.5572507120416039,0.0005617667873885158,0,66,[],0.011921040015295148,None,['space'],502.1340572999907,502.1340572999907,0.20797664001293015,1.37416071756934,502.3533558999916,502.1340572999907,,,,[-0.917412399983732],,,,,,,quicsb,001,fr,0,2022-07-21_14h56.39.686,Continuous,2022.1.1,34.86564349927824,
13,0,13,0,8,0,8,0,,,,,,,,1.1661840775564098,time,440.0,-0.7594052904056006,6.827272396593379e-05,0,67,[],0.012798040013876744,None,['space'],503.5209285000019,503.5209285000019,0.21341734001180157,1.3796014175682114,503.74132590000227,503.5209285000019,,,,[-0.8492218999890611],,,,,,,quicsb,001,fr,0,2022-07-21_14h56.39.686,Continuous,2022.1.1,34.86564349927824,
13,0,13,0,9,0,9,0,,,,,,,,1.1661840775564098,time,1318.0,0.8366514112105934,5.8161989141870734e-05,0,68,[],0.01539123999828007,None,None,504.91406159999315,504.91406159999315,0.21944554000219796,1.3856296175586078,505.1287406999909,504.91406159999315,,,,,,,,,,,quicsb,001,fr,0,2022-07-21_14h56.39.686,Continuous,2022.1.1,34.86564349927824,
13,0,13,0,10,0,10,0,,,,,,,,1.1661840775564098,time,1046.0,-0.21433556971074008,4.485584547179191e-05,0,69,[],0.015945840001222678,None,None,506.3032370000001,506.3032370000001,0.22583594000025187,1.3920200175566617,506.5174568999937,506.3032370000001,,,,,,,,,,,quicsb,001,fr,0,2022-07-21_14h56.39.686,Continuous,2022.1.1,34.86564349927824,
14,0,14,0,0,0,0,0,,,,,,510.2800983999914,None,2.909368396722976,time,5657.0,6.932723014544223,0.0002854967450812626,0,70,[],0.018726139998761937,0.2184318399959011,None,511.3086476000026,None,0.2184318399959011,3.127800236718877,511.5249227000022,None,507.68447899998864,None,"[0.3333333333333333, 0.16666666666666666, 0.3333333333333333, 0.3333333333333333, 0.5833333333333334, 0.5833333333333334, 0.5833333333333334, 0.16666666666666666, 0.3333333333333333, 0.16666666666666666, 0.5833333333333334, 0.5833333333333334, 0.5833333333333334, 0.5833333333333334, 0.16666666666666666]",,,,,,,,quicsb,001,fr,0,2022-07-21_14h56.39.686,Continuous,2022.1.1,34.86564349927824,
14,0,14,0,1,0,1,0,,,,,,,,2.909368396722976,time,1682.0,6.991502427007997,0.00013520528390383531,0,71,[],0.009423039999091998,None,['space'],514.4394998999924,514.4394998999924,0.21133134000410791,3.120699736727084,514.6622725999914,514.4394998999924,,,,[-2.671661700005643],,,,,,,quicsb,001,fr,0,2022-07-21_14h56.39.686,Continuous,2022.1.1,34.86564349927824,
14,0,14,0,2,0,2,0,,,,,,,,2.909368396722976,time,1335.0,6.9718154450954115,0.00011692661661667613,0,72,[],0.015388339990749955,None,['space'],517.5826818999922,517.5826818999922,0.22083133998967241,3.1301997367126484,517.797281799998,517.5826818999922,,,,[-2.7104660000040894],,,,,,,quicsb,001,fr,0,2022-07-21_14h56.39.686,Continuous,2022.1.1,34.86564349927824,
14,0,14,0,3,0,3,0,,,,,,,,2.909368396722976,time,6350.0,2.7178582236225632,0.00017984426354173829,0,73,[],0.01138874000753276,None,['space'],520.7044472999987,520.7044472999987,0.21298674000718165,3.1223551367301576,520.9191718999937,520.7044472999987,,,,[-2.6969977999979164],,,,,,,quicsb,001,fr,0,2022-07-21_14h56.39.686,Continuous,2022.1.1,34.86564349927824,
14,0,14,0,4,0,4,0,,,,,,,,2.909368396722976,time,944.0,5.601399444899926,8.092046171050147e-05,0,74,[],0.015490940000745468,None,['space'],523.8369422999967,523.8369422999967,0.21981773999868892,3.129186136721665,524.0545459999994,523.8369422999967,,,,[-2.7728137000085553],,,,,,,quicsb,001,fr,0,2022-07-21_14h56.39.686,Continuous,2022.1.1,34.86564349927824,
14,0,14,0,5,0,5,0,,,,,,,,2.909368396722976,time,1060.0,4.277719224981964,7.619355738983814e-05,0,75,[],0.012154140014899895,None,['space'],526.9622871999891,526.9622871999891,0.2116141400183551,3.120982536741331,527.1793998999929,526.9622871999891,,,,[-2.706291599999531],,,,,,,quicsb,001,fr,0,2022-07-21_14h56.39.686,Continuous,2022.1.1,34.86564349927824,
14,0,14,0,6,0,6,0,,,,,,,,2.909368396722976,time,,,,1,75,[],0.014562340002157725,None,['space'],530.0956401000003,530.0956401000003,0.21801964000042062,3.1273880367233966,530.3167449999892,530.0956401000003,,,,[-2.7672512999997707],,,,,,,quicsb,001,fr,0,2022-07-21_14h56.39.686,Continuous,2022.1.1,34.86564349927824,
14,0,14,0,7,0,7,0,,,,,,,,2.909368396722976,time,8000.0,7.0,0.00040641525808204974,0,76,[],0.01626033999491483,None,None,533.2265364999912,533.2265364999912,0.22521333998884074,3.1345817367118167,533.44293379999,533.2265364999912,,,,,,,,,,,quicsb,001,fr,0,2022-07-21_14h56.39.686,Continuous,2022.1.1,34.86564349927824,
14,0,14,0,8,0,8,0,,,,,,,,2.909368396722976,time,2520.0,6.7338817446906205,0.00018379520553681275,0,77,[],0.012853039996116422,None,['space'],536.3528997999965,536.3528997999965,0.21246373998292256,3.1218321367058985,536.5734265999927,536.3528997999965,,,,[-2.809174100009841],,,,,,,quicsb,001,fr,0,2022-07-21_14h56.39.686,Continuous,2022.1.1,34.86564349927824,
15,0,15,0,0,0,0,0,,,,,0.3333333333333333,542.9319341999944,None,2.744861826614363,frequency,499.0,3.8548643135130365,0.00011143553780717157,0,71,[],0.02429503999883309,None,None,543.9468296999985,None,0.22342854000453372,2.9682903666188967,544.15566389999,None,539.4889930999925,None,,,,,,,,,quicsb,001,fr,0,2022-07-21_14h56.39.686,Continuous,2022.1.1,34.86564349927824,
15,0,15,0,1,0,1,0,,,,,,,,2.64469181177175,frequency,396.0,3.4669761339499594,0.00011565656276749326,0,72,[],0.011986240002443083,None,['space'],546.8991973999946,546.8991973999946,0.21577353999600746,2.8604653517677576,547.1195249000011,546.8991973999946,,,,[-2.490104699987569],,,,,,,quicsb,001,fr,0,2022-07-21_14h56.39.686,Continuous,2022.1.1,34.86564349927824,
15,0,15,0,2,0,2,0,,,,,,,,1.602593564732198,frequency,314.0,4.325644053761588,0.00016401841466266926,0,73,[],0.010950240000966005,None,['space'],549.7690079000022,549.7690079000022,0.20975733999512158,1.8123509047273196,549.9838496000011,549.7690079000022,,,,[-2.3919714000076056],,,,,,,quicsb,001,fr,0,2022-07-21_14h56.39.686,Continuous,2022.1.1,34.86564349927824,
15,0,15,0,3,0,3,0,,,,,,,,2.536343638185922,frequency,249.0,3.1692811782675907,0.00024405341904895782,0,74,[],0.007829440000932664,0.20142933999886736,['space'],551.5972141999955,551.5972141999955,0.20142933999886736,2.7377729781847893,551.8058804999891,551.5972141999955,,,,[-1.4121129999984987],,,,,,,quicsb,001,fr,0,2022-07-21_14h56.39.686,Continuous,2022.1.1,34.86564349927824,
15,0,15,0,4,0,4,0,,,,,,,,2.603025657301846,frequency,198.0,1.8293492341862085,0.0003366621455273892,0,75,[],0.014997539998148568,None,['space'],554.352658799995,554.352658799995,0.21973153999715578,2.8227571972990018,554.5702820000006,554.352658799995,,,,[-2.337199999994482],,,,,,,quicsb,001,fr,0,2022-07-21_14h56.39.686,Continuous,2022.1.1,34.86564349927824,
15,0,15,0,5,0,5,0,,,,,,,,2.208655349826381,frequency,157.0,4.37055756412599,0.0007241577269010077,0,76,[],0.012654439997277223,None,['space'],557.1751886999991,557.1751886999991,0.21393723999790382,2.422592589824285,557.3942624999909,557.1751886999991,,,,[-2.3593198000016855],,,,,,,quicsb,001,fr,0,2022-07-21_14h56.39.686,Continuous,2022.1.1,34.86564349927824,
15,0,15,0,6,0,6,0,,,,,,,,2.252250880165958,frequency,125.0,5.0,0.0012851978913844323,0,77,[],0.011908539992873557,None,['space'],559.6004485000012,559.6004485000012,0.21086233999812976,2.4631132201640877,559.8172557999933,559.6004485000012,,,,[-2.025114099989878],,,,,,,quicsb,001,fr,0,2022-07-21_14h56.39.686,Continuous,2022.1.1,34.86564349927824,
15,0,15,0,7,0,7,0,,,,,,,,2.6738614049018388,frequency,,,,1,77,[],0.015054839997901581,None,['space'],562.0789426999982,562.0789426999982,0.2206693400075892,2.894530744909428,562.2930141999968,562.0789426999982,,,,[-2.190609900004347],,,,,,,quicsb,001,fr,0,2022-07-21_14h56.39.686,Continuous,2022.1.1,34.86564349927824,
16,0,16,0,0,0,0,0,,,,,0.16666666666666666,568.7306891999906,None,2.8511233896277552,frequency,3033.0,14.608189093590525,0.00031148668470561933,0,78,[],0.02354753999679815,None,None,569.7655965000013,None,0.23157753999112174,3.082700929618877,569.9800887000019,None,564.9657060000027,None,,,,,,,,,quicsb,001,fr,0,2022-07-21_14h56.39.686,Continuous,2022.1.1,34.86564349927824,
16,0,16,0,1,0,1,0,,,,,,,,2.272001365484812,frequency,2702.0,5.086407563114537,0.00013172744320224709,0,79,[],0.011055840004701167,None,['space'],572.8306247,572.8306247,0.2103603400028078,2.48236170548762,573.0522584999999,572.8306247,,,,[-2.686405400003423],,,,,,,quicsb,001,fr,0,2022-07-21_14h56.39.686,Continuous,2022.1.1,34.86564349927824,
16,0,16,0,2,0,2,0,,,,,,,,1.9264919021817888,frequency,2407.0,10.316954310829663,0.0002749585278607577,0,80,[],0.013695239991648123,None,['space'],575.3272718999942,575.3272718999942,0.21621013998810668,2.1427020421698955,575.5378085999982,575.3272718999942,,,,[-1.9832787000050303],,,,,,,quicsb,001,fr,0,2022-07-21_14h56.39.686,Continuous,2022.1.1,34.86564349927824,
16,0,16,0,3,0,3,0,,,,,,,,2.277073869939181,frequency,2144.0,12.594322113184713,0.0003325310902531038,0,81,[],0.010951539996312931,0.2073140400025295,['space'],577.4654684999987,577.4654684999987,0.2073140400025295,2.4843879099417103,577.6822066000022,577.4654684999987,,,,[-1.7214998999988893],,,,,,,quicsb,001,fr,0,2022-07-21_14h56.39.686,Continuous,2022.1.1,34.86564349927824,
16,0,16,0,4,0,4,0,,,,,,,,2.9947476380585654,frequency,1910.0,15.681276589102879,0.00043030660977633125,0,82,[],0.010686039997381158,None,['space'],579.9571539999888,579.9571539999888,0.20632633999048267,3.201073978049048,580.1726907999982,579.9571539999888,,,,[-2.1085931999987224],,,,,,,quicsb,001,fr,0,2022-07-21_14h56.39.686,Continuous,2022.1.1,34.86564349927824,
16,0,16,0,5,0,5,0,,,,,,,,2.838562736874721,frequency,,,,1,82,[],0.011486240007798187,None,['space'],583.1745097999956,583.1745097999956,0.21218344000226352,3.0507461768769844,583.3965367999917,583.1745097999956,,,,[-2.926270399999339],,,,,,,quicsb,001,fr,0,2022-07-21_14h56.39.686,Continuous,2022.1.1,34.86564349927824,
16,0,16,0,6,0,6,0,,,,,,,,2.5149914113602065,frequency,1516.0,17.0,0.00035152498163304983,0,83,[],0.010184440005104989,None,None,586.2417011999933,586.2417011999933,0.21109333999629598,2.7260847513565025,586.4551735999994,586.2417011999933,,,,,,,,,,,quicsb,001,fr,0,2022-07-21_14h56.39.686,Continuous,2022.1.1,34.86564349927824,
16,0,16,0,7,0,7,0,,,,,,,,1.5441047040254712,frequency,1351.0,7.48769859537375,0.00012314100261507215,0,84,[],0.003785640001296997,None,['space'],588.9832208000007,588.9832208000007,0.20387964000110514,1.7479843440265763,589.2051974999922,588.9832208000007,,,,[-2.3341758999886224],,,,,,,quicsb,001,fr,0,2022-07-21_14h56.39.686,Continuous,2022.1.1,34.86564349927824,
16,0,16,0,8,0,8,0,,,,,,,,2.182431757338181,frequency,1204.0,7.414950189279787,0.00012348404543963387,0,85,['frequency'],0.013917339994804934,None,['space'],590.7589311999909,590.7589311999909,0.21945213999424595,2.401883897332427,590.9798852999957,590.7589311999909,,,,[-1.3994321999925887],"{'estimation': [[125.0, 1.646838835920989], [127.32443602437613, 1.0], [131.04402809714577, 0.0], [133.9716828170366, -0.7346356022327318], [134.99854233963703, -1.0], [138.86674384350445, -2.0], [142.86596953996917, -3.0], [143.5872943746293, -3.1742029339661064], [147.5281280946066, -4.0], [152.3973207508541, -5.0], [153.89305166811442, -5.297606745815761], [159.1922651348888, -6.0], [164.93848884661162, -6.7331823122716274], [171.53334199894968, -7.0], [176.77669529663677, -7.204572261865666], [180.96020623202645, -7.0], [189.46457081379947, -6.605568817852383], [194.6416653183, -6.0], [203.0630990890585, -5.052215555314836], [203.40264662370996, -5.0], [209.95974477867364, -4.0], [216.73083918656386, -3.0], [217.6376408240306, -2.8711490898529077], [223.31087492829153, -2.0], [229.9639377163693, -1.0], [233.25824788420132, -0.52760134648614], [237.50157251248288, 0.0], [245.74537430724038, 1.0], [249.99999999999937, 1.4910578706743502], [256.77475123672343, 2.0], [267.94336563407256, 2.7988416751717753], [276.9195567213343, 3.0], [287.1745887492579, 3.2204752297619796], [298.5451969709497, 3.0], [307.78610333622805, 2.8261958605254534], [327.7138443781958, 2.0], [329.87697769322244, 1.9119954964173635], [350.96585829557864, 1.0], [353.55339059327247, 0.8903368320840975], [378.929141627598, 0.16385869147344645], [405.4996525835446, 0.0], [406.12619817811606, -0.003722740838524725], [406.356562547863, 0.0], [435.2752816480601, 0.44195593994683824], [454.359381793657, 1.0], [466.5164957684015, 1.340568383150898], [487.5227809931989, 2.0], [499.9999999999975, 2.380058910095575], [526.6959527674293, 3.0], [535.8867312681438, 3.209088538108425], [574.3491774985143, 3.5502793844705014], [615.5722066724546, 3.2889536598046254], [631.4260792711657, 3.0], [659.7539553864432, 2.5046274603197447], [682.1564696426603, 2.0], [707.1067811865431, 1.4556173928744192], [731.2706556557623, 1.0], [757.8582832551951, 0.5095904156016338], [812.2523963562301, 0.055421359000505044], [870.5505632961181, 0.4048199840030754], [898.3350201575104, 1.0], [933.0329915368008, 1.7163762641768818], [941.3749155532935, 2.0], [970.887304086216, 3.0], [999.9999999999926, 3.948055931661173], [1001.2890043418814, 4.0], [1025.7444715596762, 5.0], [1050.1416168903372, 6.0], [1071.773462536285, 6.84887202305245], [1075.524812795812, 7.0], [1099.748052645238, 8.0], [1123.6844484122496, 9.0], [1148.544939721524, 10.0], [1148.698354997026, 10.00599413291494], [1176.8049883468605, 11.0], [1204.6638424854038, 12.0], [1231.1444133449063, 12.922832043066371], [1234.2486861680616, 13.0], [1274.0446382459525, 14.0], [1314.2437920186546, 15.0], [1319.5079107728832, 15.128711716547745], [1391.06204140715, 16.0], [1414.2135623730828, 16.277671967701103], [1515.7165665103846, 16.223975296546215], [1535.7178277798102, 16.0], [1624.5047927124563, 15.041278386937787], [1626.757830267588, 15.0], [1682.2140887896185, 14.0], [1740.2710200600482, 13.0], [1741.1011265922318, 12.98621817459869], [1787.4511000749599, 12.0], [1835.9850233318912, 11.0], [1866.065983073597, 10.414574097171057], [1885.621804047498, 10.0], [1933.2126964922206, 9.0], [1983.158616139112, 8.0], [1999.9999999999802, 7.681055807573522], [2036.2686410533897, 7.0], [2090.1857618643508, 6.0], [2143.5469250725646, 5.065084304919404], [2147.749251859868, 5.0], [2212.1880548744302, 4.0], [2278.155672006981, 3.0], [2297.3967099940432, 2.7191856231335554], [2355.236648997888, 2.0], [2436.056016262486, 1.0], [2462.2888266898062, 0.6833242497222733], [2530.524300210874, 0.0], [2631.085793036693, -1.0], [2639.01582154576, -1.077646404934367], [2751.929926792905, -2.0], [2828.427124746159, -2.613382399864318], [2886.702985545499, -3.0], [3031.4331330207615, -3.9379444403972124], [3043.682249022098, -4.0], [3247.197623713213, -5.0], [3249.0095854249043, -5.00864859666535], [3482.2022531844596, -5.732341954500701], [3732.1319661471844, -5.9976659130672], [3999.9999999999504, -5.718244491044738], [4239.306643543499, -5.0], [4287.093850145118, -4.8626784920852995], [4475.715373840829, -4.0], [4594.793419988081, -3.4782690161553353], [4680.676958083909, -3.0], [4864.05697250191, -2.0], [4924.577653379601, -1.6814722758717193], [5041.4793881070655, -1.0], [5214.9339981947915, 0.0], [5278.031643091506, 0.35332126777486217], [5395.147464774519, 1.0], [5576.868557711544, 2.0], [5656.854249492303, 2.429679722818319], [5775.71633786301, 3.0], [5985.77494909489, 4.0], [6062.866266041516, 4.358304597400949], [6231.486405167555, 5.0], [6498.019170849792, 5.982681998161177], [6504.356538887604, 6.0], [6884.254129975006, 7.0], [6964.4045063688845, 7.201069879229242], [7464.2639322943505, 7.966212071618613], [7519.706178473852, 8.0], [7999.999999999882, 8.293084346895373]], 'plus_line': [[124.99999999999991, -4.790712695019102], [125.78892774392604, -5.0], [129.65987349107385, -6.0], [133.9716828170366, -6.974060937720647], [134.06644049110312, -7.0], [137.65422413248226, -8.0], [141.5339864571587, -9.0], [143.5872943746293, -9.492086051311912], [145.81513458966566, -10.0], [150.32073664616988, -11.0], [153.89305166811442, -11.73156022230667], [155.81671585774606, -12.0], [163.21833126246008, -13.0], [164.93848884661162, -13.223437024527948], [176.77669529663666, -13.671578089315624], [189.15433843009123, -13.0], [189.46457081379947, -12.984336729399116], [197.53892611671822, -12.0], [203.0630990890585, -11.328351016323463], [205.1571491045295, -11.0], [211.46483670862236, -10.0], [217.6376408240306, -9.000412520599284], [217.6402633569893, -9.0], [224.04906510107622, -8.0], [230.17355619351858, -7.0], [233.25824788420132, -6.510302596522874], [237.20716881941416, -6.0], [244.83097515915227, -5.0], [249.99999999999937, -4.3319235556249165], [254.04455222432932, -4.0], [266.5191394909619, -3.0], [267.94336563407256, -2.891151010065955], [287.1745887492579, -2.4255589738003063], [307.78610333622805, -2.8567826445502416], [310.8324051278023, -3.0], [329.87697769322244, -3.885736270110391], [332.2216129676448, -4.0], [353.07705794811454, -5.0], [353.55339059327247, -5.022569534315817], [378.929141627598, -5.802391499537288], [406.12619817811606, -5.914038986659695], [435.2752816480596, -5.361658492760578], [446.1855515770455, -5.0], [466.5164957684015, -4.365567603192973], [477.6155770300523, -4.0], [499.9999999999975, -3.2941813520925227], [512.6060155857505, -3.0], [535.8867312681438, -2.486689171807833], [574.3491774985143, -2.159408440558851], [615.5722066724546, -2.417474712716772], [648.5474253679904, -2.9999999999999996], [659.7539553864432, -3.1958299691939756], [693.8851447269839, -4.0], [707.1067811865431, -4.303204115879676], [740.056350269375, -5.0], [757.8582832551941, -5.372164346673068], [812.2523963562301, -5.94697182109497], [870.5505632961181, -5.665508316648356], [901.5180478945242, -5.0], [933.0329915368008, -4.32982764104975], [942.974993553772, -4.0], [972.4584403130604, -3.0], [999.9999999999926, -2.038364072943454], [1001.0184784018384, -2.0], [1027.169754636342, -1.0], [1051.289850015031, 0.0], [1071.773462536285, 0.8563734555728815], [1075.713633949361, 1.0], [1102.2759548518993, 2.0], [1126.6165085270984, 3.0], [1148.6983549970246, 3.9220724878040665], [1151.2076765618938, 4.0], [1182.6555956612467, 5.0], [1211.6014361388488, 6.0], [1231.1444133449063, 6.679591902550154], [1245.4603303371798, 7.000000000000001], [1288.8499598552005, 8.0], [1319.5079107728832, 8.72723228070738], [1344.3816803392608, 9.0], [1414.2135623730828, 9.753061056858456], [1515.7165665103846, 9.630232393288537], [1572.7288282542377, 9.0], [1624.5047927124563, 8.452446039337884], [1649.7703666073248, 8.0], [1708.4015796925114, 7.0], [1741.1011265922318, 6.486416094548964], [1764.3265074625697, 6.0], [1814.1289862096708, 5.0], [1866.065983073597, 4.08026082779681], [1869.9174254389027, 4.0], [1917.8808506744626, 3.0], [1971.2295521168412, 2.0], [1999.9999999999802, 1.510534870575309], [2026.821904781577, 1.0], [2081.3040286604196, 0.0], [2143.529947393081, -1.0], [2143.5469250725673, -1.0002622863108896], [2203.8766769112212, -2.0], [2269.8377097663356, -3.0], [2297.3967099940432, -3.389115870619071], [2341.569964706282, -4.0], [2416.595115908721, -5.0], [2462.2888266898062, -5.567190995103361], [2500.4552099249513, -6.0], [2590.6064073050443, -7.0], [2639.01582154576, -7.507141873919176], [2692.8143859578076, -8.0], [2806.3723486576464, -9.0], [2828.427124746159, -9.188164558100612], [2941.7814176385523, -10.0], [3031.4331330207615, -10.609857929029872], [3105.776249104315, -11.0], [3249.0095854249043, -11.727102668355492], [3333.8980012658017, -12.0], [3482.2022531844555, -12.47214409081144], [3732.1319661471844, -12.72971062711542], [3999.999999999946, -12.41464510698028], [4124.822806015046, -12.0], [4287.093850145118, -11.488694792967763], [4388.157918698084, -11.0], [4594.793419988081, -10.010400523997468], [4596.639906442575, -10.0], [4776.851381718947, -9.0], [4924.577653379601, -8.165604639932505], [4953.940905013382, -8.0], [5130.517716607336, -7.0], [5278.031643091506, -6.141747824758927], [5305.317032090377, -6.0], [5496.618101980612, -5.0], [5656.854249492303, -4.133442524883883], [5686.20548750319, -4.0], [5905.775206186795, -3.0], [6062.866266041516, -2.269566410900941], [6133.662682747849, -2.0], [6397.58485359786, -1.0], [6498.019170849792, -0.6255672562725988], [6714.246882579363, 0.0], [6964.404506368902, 0.7013410306363557], [7135.858861093365, 1.0], [7464.2639322943505, 1.5378097548985465], [7999.999999999892, 1.647968547803883]], 'minus_line': [[125.0, 8.1249492596288], [125.41976190643337, 8.0], [128.7842521109048, 7.0], [132.06607289888356, 6.0], [133.9716828170366, 5.443023513271031], [135.7284302974794, 5.0], [139.5787222889644, 4.0], [143.34202519831516, 3.0], [143.5872943746293, 2.9377299669603674], [148.21047900533247, 2.0], [152.96258706387906, 1.0], [153.89305166811442, 0.8104989078760049], [159.90751805594186, 0.0], [164.93848884661162, -0.6674336212070762], [171.83941544989688, -1.0], [176.77669529663666, -1.2186961812176176], [181.9773588636354, -1.0], [189.46457081379947, -0.6891069563894492], [195.43973028483373, 0.0], [203.0630990890585, 0.8167321062656456], [204.2370191036879, 1.0], [210.668942943451, 2.0], [217.6376408240306, 2.9714183500792637], [217.8199684223041, 3.0], [224.11948944092302, 4.0], [231.0387124619022, 5.0], [233.25824788420132, 5.300537354547593], [238.84708191393955, 6.0], [247.45007503366742, 7.0], [249.99999999999937, 7.2787981048542845], [260.011078688784, 8.0], [267.94336563407256, 8.53825230596054], [287.1745887492579, 8.916799447156006], [307.78610333622805, 8.538397437709122], [321.1990093442993, 8.0], [329.87697769322244, 7.666550289603055], [345.82194214545723, 7.0], [353.55339059327247, 6.687834909595426], [377.24828027980556, 6.0], [378.929141627598, 5.9539184267716605], [406.12619817811606, 5.741642693848698], [425.76996370029326, 6.0], [435.2752816480601, 6.126661835456304], [465.8732489418962, 7.0], [466.5164957684015, 7.018087777135651], [495.69175601908927, 8.0], [499.9999999999975, 8.141699793355734], [532.6880695800253, 9.0], [535.8867312681438, 9.083904551916564], [574.3491774985143, 9.506802949223538], [615.5722066724546, 9.237188777550536], [627.6075022426313, 9.0], [659.7539553864432, 8.405162028808267], [677.1276304319739, 8.0], [707.1067811865431, 7.327992723969556], [724.7141672373981, 7.0], [757.8582832551941, 6.410339431052046], [811.409255279878, 6.000000000000001], [812.252396356229, 5.994023580187027], [813.189247132086, 6.0], [870.5505632961181, 6.370428994420404], [900.0398956513741, 7.0], [933.0329915368008, 7.662526396739602], [942.561120964086, 8.0], [971.3245990474429, 9.0], [999.9999999999926, 9.891720721793364], [1002.4705769007603, 10.0], [1024.622636693553, 11.0], [1048.190267109467, 12.0], [1071.773462536285, 12.889864738990083], [1074.2056348161764, 13.000000000000002], [1095.398738940547, 14.0], [1117.4434854620972, 15.0], [1141.9618959893405, 16.0], [1148.698354997026, 16.259021894183952], [1166.837765413449, 17.0], [1191.5758485248036, 18.0], [1218.4540379212744, 19.0], [1231.1444133449063, 19.441629392060943], [1250.495535646139, 20.0], [1285.7647565141745, 21.0], [1319.5079107728832, 21.882086428121273], [1327.8710832505726, 22.0], [1399.65379333953, 23.0], [1414.2135623730828, 23.19745344479862], [1515.7165665103828, 23.205259740762944], [1533.306823342876, 23.0], [1621.3199732319772, 22.0], [1624.5047927124563, 21.96516499123668], [1675.8321380803652, 21.0], [1727.6989349226913, 20.0], [1741.1011265922318, 19.75041381000491], [1775.248371801701, 19.0], [1819.0818729939272, 18.0], [1862.6673926651845, 17.0], [1866.065983073597, 16.92604267902974], [1909.0697892430032, 16.0], [1953.1096810523538, 15.0], [1997.1166981781384, 14.0], [1999.9999999999802, 13.938205742931991], [2050.183821991017, 13.0], [2100.740431733399, 12.0], [2143.5469250725646, 11.158490745589337], [2154.1992353867186, 11.0], [2220.488190865046, 10.0], [2283.6965104140177, 9.0], [2297.396709994046, 8.790133311659414], [2366.3601597616366, 8.0], [2449.4672004006, 7.0], [2462.2888266898062, 6.8485302706675935], [2556.13970260619, 6.0], [2639.015821545763, 5.226269116304127], [2669.030550945927, 5.0], [2801.147756959158, 4.0], [2828.427124746159, 3.7951603310315196], [2954.8614852579176, 3.0], [3031.4331330207615, 2.5236568950006104], [3136.684074119042, 2.0], [3249.0095854249043, 1.4588630248887642], [3390.1630301827736, 1.0], [3482.202253184451, 0.7176121686708523], [3732.1319661471844, 0.42833651777080217], [3999.9999999999504, 0.6694304172303264], [4115.444545155214, 1.0], [4287.093850145118, 1.4783817819406497], [4402.174897498283, 2.0], [4594.793419988081, 2.8209829198252434], [4626.011282906384, 3.0], [4803.390351999688, 4.0], [4924.577653379601, 4.6303137905485166], [4983.541680368556, 5.0], [5145.784606098176, 6.0], [5278.031643091513, 6.750767608372623], [5318.956297659583, 7.0], [5483.072868931859, 8.0], [5656.854249492303, 8.971022293911197], [5662.359280157273, 9.0], [5850.241386476807, 10.0], [6054.319164075667, 11.0], [6062.866266041508, 11.040974226977792], [6302.940853261247, 12.0], [6498.019170849792, 12.722772810535105], [6605.040440788914, 13.000000000000002], [6964.404506368894, 13.885664773091342], [7040.346559833082, 14.0], [7464.2639322943505, 14.627192313549543], [7821.661039180299, 15.0], [7999.999999999882, 15.192984472656473]]}",,,,,,quicsb,001,fr,0,2022-07-21_14h56.39.686,Continuous,2022.1.1,34.86564349927824,
16,0,16,0,9,0,9,0,,,,,,,,1.4323304355324022,frequency,1073.0,4.346229702341518,7.769375064339308e-05,0,86,['frequency'],0.009322040001279674,0.2049570399976801,['space'],593.1656781999918,593.1656781999918,0.2049570399976801,1.6372874755300824,593.3828479999938,593.1656781999918,,,,[-2.0447353000054136],,,,,,,quicsb,001,fr,0,2022-07-21_14h56.39.686,Continuous,2022.1.1,34.86564349927824,
16,0,16,0,10,0,10,0,,,,,,,,1.2385156873823813,frequency,956.0,4.06653311277832,6.83580279567338e-05,0,87,['frequency'],0.01003604001016356,None,['space'],594.8150510999985,594.8150510999985,0.20869064000726212,1.4472063273896434,595.0353381000023,594.8150510999985,,,,[-1.1909534999867901],,,,,,,quicsb,001,fr,0,2022-07-21_14h56.39.686,Continuous,2022.1.1,34.86564349927824,
16,0,16,0,11,0,11,0,,,,,,,,1.4565231616017968,frequency,852.0,15.359877872576286,0.00023354939048577959,0,88,['frequency'],0.011752139995223843,None,['space'],596.2826053999888,596.2826053999888,0.2187956400011899,1.6753188016029867,596.4999790000002,596.2826053999888,,,,[-0.9311880999885034],,,,,,,quicsb,001,fr,0,2022-07-21_14h56.39.686,Continuous,2022.1.1,34.86564349927824,
16,0,16,0,12,0,12,0,,,,,,,,2.9403531222984594,frequency,759.0,12.451404726473093,0.00016871167867130187,0,89,['frequency'],0.011996239991276525,None,['space'],597.9679005999933,597.9679005999933,0.21420693999971263,3.154560062298172,598.1884255999903,597.9679005999933,,,,[-1.2316389999905368],,,,,,,quicsb,001,fr,0,2022-07-21_14h56.39.686,Continuous,2022.1.1,34.86564349927824,
16,0,16,0,13,0,13,0,,,,,,,,1.7510743495514582,frequency,676.0,6.74364399750825,0.00010244408261688253,0,90,['frequency'],0.0049212400044780225,None,['space'],601.1345703999978,601.1345703999978,0.20139223999285605,1.9524665895443143,601.3534087000007,601.1345703999978,,,,[-2.726300900001661],,,,,,,quicsb,001,fr,0,2022-07-21_14h56.39.686,Continuous,2022.1.1,34.86564349927824,
16,0,16,0,14,0,14,0,,,,,,,,2.3507223146601435,frequency,602.0,-0.5632625781857509,5.204575917179676e-05,0,91,['frequency'],0.009263340005418286,0.20604404000914656,['space'],603.1143475999997,603.1143475999997,0.20604404000914656,2.55676635466929,603.3265525000024,603.1143475999997,,,,[-1.4745507999905385],,,,,,,quicsb,001,fr,0,2022-07-21_14h56.39.686,Continuous,2022.1.1,34.86564349927824,
17,0,17,0,0,0,0,0,,,,,,611.5069099999964,None,2.4273091172384893,time,851.0,-0.43975518519564294,3.785185745676294e-05,0,78,['frequency'],0.022859840013552457,None,None,612.532069199995,None,0.23264154000207782,2.659950657240567,612.7511184999894,None,605.6803452999884,None,"[0.3333333333333333, 0.5833333333333334, 0.3333333333333333, 0.3333333333333333, 0.5833333333333334, 0.5833333333333334, 0.16666666666666666, 0.3333333333333333, 0.3333333333333333, 0.3333333333333333, 0.5833333333333334, 0.16666666666666666, 0.5833333333333334, 0.5833333333333334, 0.16666666666666666]",,,,,,,,quicsb,001,fr,0,2022-07-21_14h56.39.686,Continuous,2022.1.1,34.86564349927824,
17,0,17,0,1,0,1,0,,,,,,,,2.4273091172384893,time,1606.0,1.5627137660780024,6.826121541905551e-05,0,79,['frequency'],0.0059943399974144995,0.20383364000008442,None,615.1791802999942,615.1791802999942,0.20383364000008442,2.6311427572385737,615.3961848999897,615.1791802999942,,,,,,,,,,,quicsb,001,fr,0,2022-07-21_14h56.39.686,Continuous,2022.1.1,34.86564349927824,
17,0,17,0,2,0,2,0,,,,,,,,2.4273091172384893,time,451.0,-0.3131119220616303,7.133019531899502e-05,0,80,['frequency'],0.009793940000236034,None,['space'],617.8294983999949,617.8294983999949,0.20913164000376128,2.6364407572422506,618.0428966999898,617.8294983999949,,,,[-2.0930774999869755],,,,,,,quicsb,001,fr,0,2022-07-21_14h56.39.686,Continuous,2022.1.1,34.86564349927824,
17,0,17,0,3,0,3,0,,,,,,,,2.4273091172384893,time,2406.0,-0.9581794605279905,7.505776951931261e-05,0,81,['frequency'],0.008416940007009543,None,None,620.4781473999901,620.4781473999901,0.20684004000213463,2.634149157240624,620.694393400001,620.4781473999901,,,,,,,,,,,quicsb,001,fr,0,2022-07-21_14h56.39.686,Continuous,2022.1.1,34.86564349927824,
17,0,17,0,4,0,4,0,,,,,,,,2.4273091172384893,time,3403.0,-2.336597804445738,5.6133666025029005e-05,0,82,['frequency'],0.011001740000210702,None,None,623.1274680999923,623.1274680999923,0.2194388399948366,2.646747957233326,623.3505647999991,623.1274680999923,,,,,,,,,,,quicsb,001,fr,0,2022-07-21_14h56.39.686,Continuous,2022.1.1,34.86564349927824,
17,0,17,0,5,0,5,0,,,,,,,,2.4273091172384893,time,1072.0,0.6953147406903568,5.09864225368826e-05,0,83,['frequency'],0.009465240000281483,0.20961214000999462,None,625.7827842999977,625.7827842999977,0.20961214000999462,2.636921257248484,625.9986473999888,625.7827842999977,,,,,,,,,,,quicsb,001,fr,0,2022-07-21_14h56.39.686,Continuous,2022.1.1,34.86564349927824,
17,0,17,0,6,0,6,0,,,,,,,,2.4273091172384893,time,4287.0,-3.0,7.340511522361245e-05,0,84,['frequency'],0.00951314001576975,None,None,628.4247175999917,628.4247175999917,0.21096304000820965,2.638272157246699,628.6432417999895,628.4247175999917,,,,,,,,,,,quicsb,001,fr,0,2022-07-21_14h56.39.686,Continuous,2022.1.1,34.86564349927824,
