sweeps.thisRepN,sweeps.thisTrialN,sweeps.thisN,sweeps.thisIndex,trials.thisRepN,trials.thisTrialN,trials.thisN,trials.thisIndex,instructions.started,instructions.stopped,blank_text.started,blank_text.stopped,,text.started,text.stopped,Delay,Prediction,Frequency,Volume,Psychopy_level,isCatchTrial,len(y),finished_audiograms,probe.started,probe.stopped,feedback.keys,feedback.started,feedback.stopped,ISI.started,ISI.stopped,text_2.started,text_2.stopped,feedback.rt,break_txt.started,break_txt.stopped,Intervals,Audiogram_frequency,Audiogram_time,Audiogram_both,Audiogram_none,participant,session,language (english or french),Resume previous experiment,date,expName,psychopyVersion,frameRate,
0,0,0,0,0,0,0,0,18.899917299990193,None,33.725133799991454,None,0.16666666666666666,35.80061209999258,None,2.1548512274857474,frequency,708.0,18.487558012986447,0.00037241135405774,0,26,[],0.00987516665190924,None,None,36.82644079999591,None,0.2077658666530624,2.36261709413881,37.034094599992386,None,,,,,,,,,ttuwra,001,fr,0,2022-04-26_11h01.58.172,Continuous,2022.1.1,37.437030914475784,
0,0,0,0,1,0,1,0,,,,,,,,1.2434712807192967,frequency,631.0,18.68518630433678,0.000439020024850777,0,27,[],0.012158866651589051,None,None,39.18967039999552,39.18967039999552,0.2145336666580988,1.4580049473773955,39.40435029999935,39.18967039999552,,,,,,,,,ttuwra,001,fr,0,2022-04-26_11h01.58.172,Continuous,2022.1.1,37.437030914475784,
0,0,0,0,2,0,2,0,,,,,,,,2.095570578895607,frequency,562.0,18.590219728675805,0.0005251790509372461,0,28,[],0.012302466668188572,None,None,40.63790339999832,40.63790339999832,0.2138220666674897,2.3093926455630966,40.85293500000262,40.63790339999832,,,,,,,,,ttuwra,001,fr,0,2022-04-26_11h01.58.172,Continuous,2022.1.1,37.437030914475784,
0,0,0,0,3,0,3,0,,,,,,,,2.446421556181412,frequency,501.0,19.683460462710443,0.0006873749535645215,0,29,[],0.011887166678206995,None,['space'],42.94444229999499,42.94444229999499,0.21393736667232588,2.660358922853738,43.152971199990134,42.94444229999499,[-1.6488186000060523],,,,,,,,ttuwra,001,fr,0,2022-04-26_11h01.58.172,Continuous,2022.1.1,37.437030914475784,
0,0,0,0,4,0,4,0,,,,,,,,1.690853309430546,frequency,,,,1,29,[],0.012107066650060005,None,['space'],45.60309599999164,45.60309599999164,0.2122392666497035,1.9030925760802495,45.81696949999605,45.60309599999164,[-2.1480640999943716],,,,,,,,ttuwra,001,fr,0,2022-04-26_11h01.58.172,Continuous,2022.1.1,37.437030914475784,
0,0,0,0,5,0,5,0,,,,,,,,2.7859991336175725,frequency,397.0,18.01082914253451,0.0006150457739144587,0,30,[],0.013375266673392616,None,None,47.50633669999661,47.50633669999661,0.2115554666670505,2.997554600284623,47.719097900000634,47.50633669999661,,,,,,,,,ttuwra,001,fr,0,2022-04-26_11h01.58.172,Continuous,2022.1.1,37.437030914475784,
0,0,0,0,6,0,6,0,,,,,,,,2.9921784080637615,frequency,354.0,18.0,0.0007029517838246072,0,31,[],0.011430366663262248,None,['space'],50.5026785999944,50.5026785999944,0.2125412666500779,3.2047196747138393,50.727117299989914,50.5026785999944,[-2.4713847000093665],,,,,,,,ttuwra,001,fr,0,2022-04-26_11h01.58.172,Continuous,2022.1.1,37.437030914475784,
0,0,0,0,7,0,7,0,,,,,,,,2.4033321045998957,frequency,315.0,18.124462267283562,0.000794681527154343,0,32,[],0.01194566665799357,None,['space'],53.70958699999028,53.70958699999028,0.2125033666670788,2.6158354712669745,53.92428839999775,53.70958699999028,[-2.6222545000055106],,,,,,,,ttuwra,001,fr,0,2022-04-26_11h01.58.172,Continuous,2022.1.1,37.437030914475784,
0,0,0,0,8,0,8,0,,,,,,,,2.475979157975684,frequency,281.0,18.55596777889774,0.0011401863877271436,0,33,[],0.011804666646639816,None,['space'],56.32752900000196,56.32752900000196,0.21058636665111408,2.686565524626798,56.54147219999868,56.32752900000196,[-2.0239789000042947],,,,,,,,ttuwra,001,fr,0,2022-04-26_11h01.58.172,Continuous,2022.1.1,37.437030914475784,
0,0,0,0,9,0,9,0,,,,,,,,1.4852911495040404,frequency,250.0,18.05850227679824,0.0013393531954738187,0,34,[],0.011766966650611721,None,['space'],59.01813419999962,59.01813419999962,0.20911036664620042,1.6944015161502408,59.22881899999629,59.01813419999962,[-2.123702899989439],,,,,,,,ttuwra,001,fr,0,2022-04-26_11h01.58.172,Continuous,2022.1.1,37.437030914475784,
0,0,0,0,10,0,10,0,,,,,,,,1.3982480200785377,frequency,223.0,18.261720270111034,0.0018040969369865878,0,35,[],0.011788866657298058,None,['space'],60.708082600001944,60.708082600001944,0.21086176665266976,1.6091097867312074,60.92460369999753,60.708082600001944,[-1.108998800002155],,,,,,,,ttuwra,001,fr,0,2022-04-26_11h01.58.172,Continuous,2022.1.1,37.437030914475784,
0,0,0,0,11,0,11,0,,,,,,,,1.117989262275644,frequency,199.0,18.178744335666703,0.002181852632811994,0,36,[],0.010861266651772894,None,None,62.322344699990936,62.322344699990936,0.2069819666503463,1.3249712289259903,62.53445959999226,62.322344699990936,,,,,,,,,ttuwra,001,fr,0,2022-04-26_11h01.58.172,Continuous,2022.1.1,37.437030914475784,
0,0,0,0,12,0,12,0,,,,,,,,2.421801305502145,frequency,177.0,20.56502017621521,0.003726789196819194,0,37,[],0.01179816665535327,None,None,63.65717039999436,63.65717039999436,0.21070576665806584,2.6325070721602106,63.868163799998,63.65717039999436,,,,,,,,,ttuwra,001,fr,0,2022-04-26_11h01.58.172,Continuous,2022.1.1,37.437030914475784,
0,0,0,0,13,0,13,0,,,,,,,,2.7870725004008188,frequency,158.0,21.33568732913104,0.005002276664390414,0,38,[],0.01161166666133795,None,None,66.28786139999283,66.28786139999283,0.21013726665114518,2.997209767051964,66.50608449999709,66.28786139999283,,,,,,,,,ttuwra,001,fr,0,2022-04-26_11h01.58.172,Continuous,2022.1.1,37.437030914475784,
0,0,0,0,14,0,14,0,,,,,,,,1.7890896586273326,frequency,141.0,20.498873962447313,0.006145785953962177,0,39,[],0.0049685666599543765,0.19914606666134205,['space'],69.28346679999959,69.28346679999959,0.19914606666134205,1.9882357252886746,69.49967769999057,69.28346679999959,[-2.484264600003371],,,,,,,,ttuwra,001,fr,0,2022-04-26_11h01.58.172,Continuous,2022.1.1,37.437030914475784,
1,0,1,0,0,0,0,0,,,,,,74.03785549999157,None,1.2099156703375613,time,,,,1,25,[],0.013356566647416912,None,None,75.07395449999603,None,0.22192886665288825,1.4318445369904496,75.28516089999175,None,,71.28280040000391,None,"[0.3333333333333333, 0.5833333333333334, 0.3333333333333333, 0.3333333333333333, 0.5833333333333334, 0.16666666666666666, 0.5833333333333334, 0.5833333333333334, 0.5833333333333334, 0.5833333333333334, 0.3333333333333333, 0.16666666666666666, 0.16666666666666666, 0.3333333333333333, 0.3333333333333333]",,,,,ttuwra,001,fr,0,2022-04-26_11h01.58.172,Continuous,2022.1.1,37.437030914475784,
1,0,1,0,1,0,1,0,,,,,,,,1.2099156703375613,time,750.0,18.41510435665047,0.0003386298374725139,0,26,[],0.01259236664918717,None,None,76.49319539999124,76.49319539999124,0.24185756665247027,1.4517732369900316,76.72562189999735,76.49319539999124,,,,,,,,,ttuwra,001,fr,0,2022-04-26_11h01.58.172,Continuous,2022.1.1,37.437030914475784,
1,0,1,0,2,0,2,0,,,,,,,,1.2099156703375613,time,158.0,18.817037456375473,0.003743132617525849,0,27,[],0.011460266672656871,None,None,77.92920559999766,77.92920559999766,0.21159676666138694,1.4215124369989482,78.1531338999921,77.92920559999766,,,,,,,,,ttuwra,001,fr,0,2022-04-26_11h01.58.172,Continuous,2022.1.1,37.437030914475784,
1,0,1,0,3,0,3,0,,,,,,,,1.2099156703375613,time,842.0,19.40428648184353,0.0003693943762295583,0,28,[],0.011322466656565666,None,['space'],79.3565105000016,79.3565105000016,0.20998706665704958,1.419902736994611,79.5619408999919,79.3565105000016,[-0.8451099000085378],,,,,,,,ttuwra,001,fr,0,2022-04-26_11h01.58.172,Continuous,2022.1.1,37.437030914475784,
1,0,1,0,4,0,4,0,,,,,,,,1.2099156703375613,time,668.0,18.954885393555294,0.0004240975658475742,0,29,[],0.01128116667678114,None,None,80.77457480000157,80.77457480000157,0.21440746667212807,1.4243231370096894,80.98755179998989,80.77457480000157,,,,,,,,,ttuwra,001,fr,0,2022-04-26_11h01.58.172,Continuous,2022.1.1,37.437030914475784,
1,0,1,0,5,0,5,0,,,,,,,,1.2099156703375613,time,354.0,18.0,0.0007029517838246072,0,30,[],0.00840386665367987,0.20016136665071826,None,82.19400659999519,82.19400659999519,0.20016136665071826,1.4100770369882796,82.40180449999752,82.19400659999519,,,,,,,,,ttuwra,001,fr,0,2022-04-26_11h01.58.172,Continuous,2022.1.1,37.437030914475784,
1,0,1,0,6,0,6,0,,,,,,,,1.2099156703375613,time,530.0,18.92786811127197,0.000590119847398042,0,31,[],0.007626166669069789,0.20055416665854864,['space'],83.61334159999387,83.61334159999387,0.20055416665854864,1.41046983699611,83.8227523999958,83.61334159999387,[-0.7026899999909801],,,,,,,,ttuwra,001,fr,0,2022-04-26_11h01.58.172,Continuous,2022.1.1,37.437030914475784,
1,0,1,0,7,0,7,0,,,,,,,,1.2099156703375613,time,1337.0,18.672615653515617,0.00044930542187702745,0,32,[],0.011153466650284827,None,None,85.0347929999989,85.0347929999989,0.21231456665555015,1.4222302369931115,85.25032429999555,85.0347929999989,,,,,,,,,ttuwra,001,fr,0,2022-04-26_11h01.58.172,Continuous,2022.1.1,37.437030914475784,
1,0,1,0,8,0,8,0,,,,,,,,1.2099156703375613,time,236.0,18.129036017824248,0.001571408137858318,0,33,[],0.011301866645226255,None,None,86.46381210000254,86.46381210000254,0.2099444666528143,1.4198601369903756,86.66977680000127,86.46381210000254,,,,,,,,,ttuwra,001,fr,0,2022-04-26_11h01.58.172,Continuous,2022.1.1,37.437030914475784,
1,0,1,0,9,0,9,0,,,,,,,,1.2099156703375613,time,1061.0,18.16913566456024,0.0003774670336625498,0,34,[],0.011213366655283608,None,None,87.88206999999238,87.88206999999238,0.21017706666316371,1.420092737000725,88.09160449999035,87.88206999999238,,,,,,,,,ttuwra,001,fr,0,2022-04-26_11h01.58.172,Continuous,2022.1.1,37.437030914475784,
2,0,2,0,0,0,0,0,,,,,0.3333333333333333,91.84789900000033,None,1.192404148428519,both,1416.0,21.243070382716553,0.000581407382568998,0,26,[],0.007525766646722332,0.2009599666489521,None,92.88237690000096,None,0.2009599666489521,1.3933641150774712,93.10098689999722,None,,89.30390509999415,None,,,,,,ttuwra,001,fr,0,2022-04-26_11h01.58.172,Continuous,2022.1.1,37.437030914475784,
2,0,2,0,1,0,1,0,,,,,,,,1.192404148428519,both,1124.0,19.963678687169452,0.000490335368314404,0,27,[],0.010206466642557643,None,['space'],94.28708199999528,94.28708199999528,0.21015436665038578,1.4025585150789048,94.49938949999341,94.28708199999528,[-0.9610138999996707],,,,,,,,ttuwra,001,fr,0,2022-04-26_11h01.58.172,Continuous,2022.1.1,37.437030914475784,
2,0,2,0,2,0,2,0,,,,,,,,1.192404148428519,both,892.0,18.103638194102114,0.00032944614467557003,0,28,[],0.003882366669131443,None,['space'],95.69614659999206,95.69614659999206,0.196432366661611,1.38883651509013,95.9082655999955,95.69614659999206,[-0.7699439999996684],,,,,,,,ttuwra,001,fr,0,2022-04-26_11h01.58.172,Continuous,2022.1.1,37.437030914475784,
2,0,2,0,3,0,3,0,,,,,,,,1.192404148428519,both,708.0,18.819683481809832,0.00038692713416500687,0,29,[],0.010965166671667248,0.20929586666170508,['space'],97.10307769999781,97.10307769999781,0.20929586666170508,1.4017000150902241,97.31314479999128,97.10307769999781,[-0.5923815999994986],,,,,,,,ttuwra,001,fr,0,2022-04-26_11h01.58.172,Continuous,2022.1.1,37.437030914475784,
2,0,2,0,4,0,4,0,,,,,,,,1.192404148428519,both,562.0,18.984357617798295,0.0005495589542981749,0,30,[],0.010936466671410017,None,['space'],98.5100672999979,98.5100672999979,0.21091796667315066,1.4033221151016697,98.71797189999779,98.5100672999979,[-0.8153998000052525],,,,,,,,ttuwra,001,fr,0,2022-04-26_11h01.58.172,Continuous,2022.1.1,37.437030914475784,
2,0,2,0,5,0,5,0,,,,,,,,1.192404148428519,both,446.0,18.877330543590592,0.0006520687545088275,0,31,[],0.00590146666218061,0.19491046667099,['space'],99.91322029998992,99.91322029998992,0.19491046667099,1.387314615099509,100.11802880000323,99.91322029998992,[-0.8742949000006774],,,,,,,,ttuwra,001,fr,0,2022-04-26_11h01.58.172,Continuous,2022.1.1,37.437030914475784,
2,0,2,0,6,0,6,0,,,,,,,,1.192404148428519,both,354.0,18.0,0.0007029517838246072,0,32,[],0.010986066656187177,None,None,101.31317829999898,101.31317829999898,0.2117122666531941,1.4041164150817131,101.5217302999954,101.31317829999898,,,,,,,,,ttuwra,001,fr,0,2022-04-26_11h01.58.172,Continuous,2022.1.1,37.437030914475784,
2,0,2,0,7,0,7,0,,,,,,,,1.192404148428519,both,281.0,18.044606773210734,0.0010749983595803143,0,33,[],0.0108944666426396,None,['space'],102.7151501999906,102.7151501999906,0.20759306664695032,1.3999972150754694,102.91986139999062,102.7151501999906,[-0.9564238999882946],,,,,,,,ttuwra,001,fr,0,2022-04-26_11h01.58.172,Continuous,2022.1.1,37.437030914475784,
2,0,2,0,8,0,8,0,,,,,,,,1.192404148428519,both,223.0,18.52626373901449,0.0018598890716812436,0,34,[],0.010671266660210676,None,['space'],104.11451089999173,104.11451089999173,0.2113599666627124,1.4037641150912314,104.32077879999997,104.11451089999173,[-0.8836930999968899],,,,,,,,ttuwra,001,fr,0,2022-04-26_11h01.58.172,Continuous,2022.1.1,37.437030914475784,
2,0,2,0,9,0,9,0,,,,,,,,1.192404148428519,both,,,,1,34,[],0.010823966658790596,None,None,105.51610989999608,105.51610989999608,0.211541466662311,1.40394561509083,105.7214690999972,105.51610989999608,,,,,,,,,ttuwra,001,fr,0,2022-04-26_11h01.58.172,Continuous,2022.1.1,37.437030914475784,
2,0,2,0,10,0,10,0,,,,,,,,1.192404148428519,both,140.0,20.520220827710375,0.006255431917503971,0,35,[],0.011972666645306163,None,None,106.91276669999934,106.91276669999934,0.21163186665216926,1.4040360150806883,107.12257799999497,106.91276669999934,,,,,,,,,ttuwra,001,fr,0,2022-04-26_11h01.58.172,Continuous,2022.1.1,37.437030914475784,
3,0,3,0,0,0,0,0,,,,,0.5833333333333334,111.88610209999024,None,2.8753572956929334,frequency,5527.0,16.915546499994804,0.0009346463819320908,0,40,[],0.012469866662286222,None,None,112.9008782000019,None,0.21388556665624492,3.0892428623491783,113.12102469999809,None,,108.31338809999579,None,,,,,,ttuwra,001,fr,0,2022-04-26_11h01.58.172,Continuous,2022.1.1,37.437030914475784,
3,0,3,0,1,0,1,0,,,,,,,,1.7484251994735898,frequency,3689.0,20.046418717421222,0.000789014112823327,0,41,[],0.010331166646210477,None,['space'],115.98883529999875,115.98883529999875,0.21208356665738393,1.9605087661309737,116.19625900000392,115.98883529999875,[-2.5335044999956153],,,,,,,,ttuwra,001,fr,0,2022-04-26_11h01.58.172,Continuous,2022.1.1,37.437030914475784,
3,0,3,0,2,0,2,0,,,,,,,,2.915927679518255,frequency,2462.0,19.0,0.0007580362217193046,0,42,[],0.007569866662379354,None,['space'],117.94790579999972,117.94790579999972,0.19999046665907372,3.1159181461773287,118.15681249999034,117.94790579999972,[-1.5179470000002766],,,,,,,,ttuwra,001,fr,0,2022-04-26_11h01.58.172,Continuous,2022.1.1,37.437030914475784,
3,0,3,0,3,0,3,0,,,,,,,,1.8456196658792965,frequency,1643.0,23.397267353072873,0.0008678470594911588,0,43,[],0.010452766669914126,None,['space'],121.07784539999557,121.07784539999557,0.20936456666095182,2.0549842325402485,121.29601259999617,121.07784539999557,[-2.2791143000067677],,,,,,,,ttuwra,001,fr,0,2022-04-26_11h01.58.172,Continuous,2022.1.1,37.437030914475784,
3,0,3,0,4,0,4,0,,,,,,,,1.3967468191345775,frequency,1097.0,19.647332456231783,0.0004619543307204568,0,44,[],0.01034256664570421,None,['space'],123.13554669999576,123.13554669999576,0.20867346665181685,1.6054202857863944,123.34559149999404,123.13554669999576,[-1.6648958000005223],,,,,,,,ttuwra,001,fr,0,2022-04-26_11h01.58.172,Continuous,2022.1.1,37.437030914475784,
3,0,3,0,5,0,5,0,,,,,,,,1.3525973434934337,frequency,732.0,19.236349110568018,0.00038666568033344335,0,45,[],0.0103128666523844,None,None,124.74435880000237,124.74435880000237,0.21072886665933765,1.5633262101527714,124.95875720000186,124.74435880000237,,,,,,,,,ttuwra,001,fr,0,2022-04-26_11h01.58.172,Continuous,2022.1.1,37.437030914475784,
3,0,3,0,6,0,6,0,,,,,,,,1.6001825868802786,frequency,489.0,19.05338092349674,0.0006457171620298841,0,46,[],0.010230066676740535,None,['space'],126.31313339999178,126.31313339999178,0.21014266667771153,1.8103252535579901,126.5348140999995,126.31313339999178,[-1.2262579999951413],,,,,,,,ttuwra,001,fr,0,2022-04-26_11h01.58.172,Continuous,2022.1.1,37.437030914475784,
3,0,3,0,7,0,7,0,,,,,,,,2.331437279927864,frequency,326.0,19.13639568780995,0.0008670189377219628,0,47,[],0.010152166651096195,None,['space'],128.1303545999981,128.1303545999981,0.21195976666058414,2.5433970465884483,128.34694069999387,128.1303545999981,[-1.2510573999898043],,,,,,,,ttuwra,001,fr,0,2022-04-26_11h01.58.172,Continuous,2022.1.1,37.437030914475784,
3,0,3,0,8,0,8,0,,,,,,,,1.6595534570243469,frequency,218.0,19.0,0.0020514529000819704,0,48,[],0.003674766674521379,0.19438486667058896,['space'],130.68265539999993,130.68265539999993,0.19438486667058896,1.8539383236949358,130.8933216000005,130.68265539999993,[-2.0441046000050846],,,,,,,,ttuwra,001,fr,0,2022-04-26_11h01.58.172,Continuous,2022.1.1,37.437030914475784,
3,0,3,0,9,0,9,0,,,,,,,,2.447951201590306,frequency,,,,1,48,[],0.008193866655346937,0.2014442666550167,None,132.54617499999586,132.54617499999586,0.2014442666550167,2.6493954682453227,132.75667699999758,132.54617499999586,,,,,,,,,ttuwra,001,fr,0,2022-04-26_11h01.58.172,Continuous,2022.1.1,37.437030914475784,
4,0,4,0,0,0,0,0,,,,,0.5833333333333334,139.63536709999607,None,2.863507593581897,frequency,8000.0,10.0,0.0005740768107484417,0,49,[],0.008591866673668846,0.2023051666765241,None,140.66579859999183,None,0.2023051666765241,3.0658127602584213,140.8825208999915,None,,135.20636909999303,None,,,,,,ttuwra,001,fr,0,2022-04-26_11h01.58.172,Continuous,2022.1.1,37.437030914475784,
4,0,4,0,1,0,1,0,,,,,,,,2.1613985759006713,frequency,5339.0,11.444922987586512,0.0005237613903349065,0,50,[],0.0012063666508765891,0.19568846665788442,['space'],143.7492099999945,143.7492099999945,0.19568846665788442,2.3570870425585557,143.96212280000327,143.7492099999945,[-2.6470057999977143],,,,,,,,ttuwra,001,fr,0,2022-04-26_11h01.58.172,Continuous,2022.1.1,37.437030914475784,
4,0,4,0,2,0,2,0,,,,,,,,2.2930101125565967,frequency,3563.0,20.412519403132723,0.00079978702015861,0,51,[],0.01000266666233074,None,None,146.1252744999947,146.1252744999947,0.21064396666770335,2.5036540792243,146.3343756999966,146.1252744999947,,,,,,,,,ttuwra,001,fr,0,2022-04-26_11h01.58.172,Continuous,2022.1.1,37.437030914475784,
4,0,4,0,3,0,3,0,,,,,,,,2.7986824131007846,frequency,2378.0,13.697780480207754,0.0004026849806965757,0,52,[],0.008887966658221558,0.20359666665899567,['space'],148.6295814000041,148.6295814000041,0.20359666665899567,3.0022790797597803,148.83463709999342,148.6295814000041,[-1.8790110999980243],,,,,,,,ttuwra,001,fr,0,2022-04-26_11h01.58.172,Continuous,2022.1.1,37.437030914475784,
4,0,4,0,4,0,4,0,,,,,,,,1.8485076312015407,frequency,1587.0,16.967792835159344,0.0003925299226019681,0,53,[],0.004136266667046584,0.1942961666645715,None,151.63685399999667,151.63685399999667,0.1942961666645715,2.042803797866112,151.84860409999965,151.63685399999667,,,,,,,,,ttuwra,001,fr,0,2022-04-26_11h01.58.172,Continuous,2022.1.1,37.437030914475784,
4,0,4,0,5,0,5,0,,,,,,,,1.871434147567226,frequency,1059.0,18.987876268494333,0.00041403380040577374,0,54,[],0.009809766648686491,0.20845266665855888,['space'],153.70026929999585,153.70026929999585,0.20845266665855888,2.0798868142257847,153.90634030000365,153.70026929999585,[-1.6377940999955172],,,,,,,,ttuwra,001,fr,0,2022-04-26_11h01.58.172,Continuous,2022.1.1,37.437030914475784,
4,0,4,0,6,0,6,0,,,,,,,,2.518610940449002,frequency,707.0,12.360528465684585,0.0001843018963309003,0,55,[],0.009692166655440815,None,None,155.7808764999936,155.7808764999936,0.20870696665951982,2.727317907108522,155.9977060999954,155.7808764999936,,,,,,,,,ttuwra,001,fr,0,2022-04-26_11h01.58.172,Continuous,2022.1.1,37.437030914475784,
4,0,4,0,7,0,7,0,,,,,,,,1.0248160957063654,frequency,472.0,15.084864553395548,0.0004138321437265898,0,56,[],0.009254566655727103,None,None,158.51820859999862,158.51820859999862,0.20749526665895246,1.232311362365318,158.7348256999976,158.51820859999862,,,,,,,,,ttuwra,001,fr,0,2022-04-26_11h01.58.172,Continuous,2022.1.1,37.437030914475784,
4,0,4,0,8,0,8,0,,,,,,,,1.8462324192810802,frequency,,,,1,56,[],0.009673166670836508,None,None,159.75754229999438,159.75754229999438,0.20911426667589694,2.055346685956977,159.96512880000228,159.75754229999438,,,,,,,,,ttuwra,001,fr,0,2022-04-26_11h01.58.172,Continuous,2022.1.1,37.437030914475784,
5,0,5,0,0,0,0,0,,,,,,167.49390279999352,None,2.9245070628352514,none,,,,1,25,[],0.013082666671834886,None,None,168.52216199999384,None,0.21536106667190325,3.1398681295071547,168.74322920000122,None,,161.8136158999987,None,"[0.3333333333333333, 0.16666666666666666, 0.16666666666666666, 0.5833333333333334, 0.5833333333333334, 0.5833333333333334, 0.5833333333333334, 0.3333333333333333, 0.3333333333333333, 0.16666666666666666, 0.5833333333333334, 0.3333333333333333, 0.3333333333333333, 0.5833333333333334, 0.5833333333333334]",,,,,ttuwra,001,fr,0,2022-04-26_11h01.58.172,Continuous,2022.1.1,37.437030914475784,
5,0,5,0,1,0,1,0,,,,,,,,2.409771500261959,none,149.0,20.2072315301914,0.005213435219002567,0,26,[],0.010422666658996604,None,None,171.6597497999901,171.6597497999901,0.2112052666489035,2.6209767669108626,171.88052259999677,171.6597497999901,,,,,,,,,ttuwra,001,fr,0,2022-04-26_11h01.58.172,Continuous,2022.1.1,37.437030914475784,
5,0,5,0,2,0,2,0,,,,,,,,1.5734834162799374,none,281.0,18.561451503283305,0.0011409064569753138,0,27,[],0.009384666656842455,None,['space'],174.28955879999558,174.28955879999558,0.20770436665043235,1.7811877829303697,174.50110609999683,174.28955879999558,[-2.146333200013032],,,,,,,,ttuwra,001,fr,0,2022-04-26_11h01.58.172,Continuous,2022.1.1,37.437030914475784,
5,0,5,0,3,0,3,0,,,,,,,,2.074261998676225,none,223.0,18.999495816128164,0.001964032393398506,0,28,[],0.005345266661606729,0.19418216666963417,None,176.07706559999497,176.07706559999497,0.19418216666963417,2.2684441653458594,176.2814384999947,176.07706559999497,,,,,,,,,ttuwra,001,fr,0,2022-04-26_11h01.58.172,Continuous,2022.1.1,37.437030914475784,
5,0,5,0,4,0,4,0,,,,,,,,2.6559520512283243,none,945.0,18.96686896492325,0.0003772440797665128,0,29,[],0.00847936667560134,None,None,178.36176010000054,178.36176010000054,0.2091687666688813,2.8651208178972056,178.5770126999996,178.36176010000054,,,,,,,,,ttuwra,001,fr,0,2022-04-26_11h01.58.172,Continuous,2022.1.1,37.437030914475784,
5,0,5,0,5,0,5,0,,,,,,,,1.2969794594082493,none,2122.0,21.05830339291133,0.0008756037016313693,0,30,[],0.004801666655112058,0.19336966665287036,None,181.23314240000036,181.23314240000036,0.19336966665287036,1.4903491260611197,181.44113369999104,181.23314240000036,,,,,,,,,ttuwra,001,fr,0,2022-04-26_11h01.58.172,Continuous,2022.1.1,37.437030914475784,
5,0,5,0,6,0,6,0,,,,,,,,2.6298473997921965,none,595.0,19.315099809683357,0.0005233119087963808,0,31,[],0.008566266653360799,None,['space'],182.74447520000103,182.74447520000103,0.21838576665322762,2.848233166445424,182.9650294000021,182.74447520000103,[-1.0177306000114186],,,,,,,,ttuwra,001,fr,0,2022-04-26_11h01.58.172,Continuous,2022.1.1,37.437030914475784,
5,0,5,0,7,0,7,0,,,,,,,,2.5697423153023524,none,750.0,18.119917877885097,0.0003273149923677367,0,32,[],0.006231366656720638,0.19777296665415633,None,185.58782020000217,185.58782020000217,0.19777296665415633,2.7675152819565088,185.7944936999993,185.58782020000217,,,,,,,,,ttuwra,001,fr,0,2022-04-26_11h01.58.172,Continuous,2022.1.1,37.437030914475784,
5,0,5,0,8,0,8,0,,,,,,,,1.2232666991346592,none,1416.0,20.884446131473453,0.0005578909667598774,0,33,[],0.009049566651810892,None,None,188.36986540000362,188.36986540000362,0.20854906666500028,1.4318157657996595,188.58145050000167,188.36986540000362,,,,,,,,,ttuwra,001,fr,0,2022-04-26_11h01.58.172,Continuous,2022.1.1,37.437030914475784,
5,0,5,0,9,0,9,0,,,,,,,,2.484349607088762,none,397.0,18.80840741401393,0.0006741962806418639,0,34,[],0.005642766656819731,0.19744466665724758,['space'],189.80753059999552,189.80753059999552,0.19744466665724758,2.6817942737460094,190.0148906999966,189.80753059999552,[-0.9445679999917047],,,,,,,,ttuwra,001,fr,0,2022-04-26_11h01.58.172,Continuous,2022.1.1,37.437030914475784,
5,0,5,0,10,0,10,0,,,,,,,,1.9763998669865994,none,354.0,18.0,0.0007029517838246072,0,35,[],0.009369466642965563,None,None,192.50363749999087,192.50363749999087,0.20930486664292403,2.1857047336295237,192.7151473999984,192.50363749999087,,,,,,,,,ttuwra,001,fr,0,2022-04-26_11h01.58.172,Continuous,2022.1.1,37.437030914475784,
6,0,6,0,0,0,0,0,,,,,,198.6085241999972,None,2.1258120807341943,time,,,,1,34,[],0.01265916666307021,None,None,199.63222630000382,None,0.2268640666588908,2.352676147393085,199.84861380000075,None,,194.69456190000346,None,"[0.3333333333333333, 0.16666666666666666, 0.3333333333333333, 0.16666666666666666, 0.3333333333333333, 0.16666666666666666, 0.16666666666666666, 0.5833333333333334, 0.16666666666666666, 0.3333333333333333, 0.3333333333333333, 0.5833333333333334, 0.5833333333333334, 0.16666666666666666, 0.16666666666666666]",,,,,ttuwra,001,fr,0,2022-04-26_11h01.58.172,Continuous,2022.1.1,37.437030914475784,
6,0,6,0,1,0,1,0,,,,,,,,2.1258120807341943,time,3776.0,15.533850100182285,0.00047843876791140236,0,35,[],0.00804166667512618,0.20089036667195614,None,201.9694438000006,201.9694438000006,0.20089036667195614,2.3267024474061504,202.1769373999996,201.9694438000006,,,,,,,,,ttuwra,001,fr,0,2022-04-26_11h01.58.172,Continuous,2022.1.1,37.437030914475784,
6,0,6,0,2,0,2,0,,,,,,,,2.1258120807341943,time,2997.0,14.666709825350992,0.0002977006696039198,0,36,[],0.008960366656538099,None,['space'],204.30239640000218,204.30239640000218,0.20872456666256767,2.334536647396762,204.51384620000317,204.30239640000218,[-1.407182399998419],,,,,,,,ttuwra,001,fr,0,2022-04-26_11h01.58.172,Continuous,2022.1.1,37.437030914475784,
6,0,6,0,3,0,3,0,,,,,,,,2.1258120807341943,time,4238.0,15.081901825020857,0.0005694626876760417,0,37,[],0.008244166660006158,None,None,206.64062219999323,206.64062219999323,0.20549806665803771,2.331310147392232,206.84994629998982,206.64062219999323,,,,,,,,,ttuwra,001,fr,0,2022-04-26_11h01.58.172,Continuous,2022.1.1,37.437030914475784,
6,0,6,0,4,0,4,0,,,,,,,,2.1258120807341943,time,7127.0,9.802452875981814,0.0004793669902322825,0,38,[],0.005600166667136364,0.19561236666049808,['space'],208.9775537999958,208.9775537999958,0.19561236666049808,2.3214244473946923,209.1846213999961,208.9775537999958,[-0.5628933000116376],,,,,,,,ttuwra,001,fr,0,2022-04-26_11h01.58.172,Continuous,2022.1.1,37.437030914475784,
6,0,6,0,5,0,5,0,,,,,,,,2.1258120807341943,time,2670.0,19.953300838947946,0.0007492717978402039,0,39,[],0.005923466669628397,0.19845276666455902,None,211.31334659999993,211.31334659999993,0.19845276666455902,2.3242648473987533,211.52201929999865,211.31334659999993,,,,,,,,,ttuwra,001,fr,0,2022-04-26_11h01.58.172,Continuous,2022.1.1,37.437030914475784,
6,0,6,0,6,0,6,0,,,,,,,,2.1258120807341943,time,2119.0,12.229000311236671,0.00031656995161438234,0,40,[],0.004432866669958457,0.19245336667518131,None,213.65053919999627,213.65053919999627,0.19245336667518131,2.3182654474093756,213.85559469999862,213.65053919999627,,,,,,,,,ttuwra,001,fr,0,2022-04-26_11h01.58.172,Continuous,2022.1.1,37.437030914475784,
6,0,6,0,7,0,7,0,,,,,,,,2.1258120807341943,time,8000.0,11.0,0.000644124775846567,0,41,[],0.008804866665741429,None,None,215.98239710000053,215.98239710000053,0.20865096666966565,2.33446304740386,216.1916562999977,215.98239710000053,,,,,,,,,ttuwra,001,fr,0,2022-04-26_11h01.58.172,Continuous,2022.1.1,37.437030914475784,
6,0,6,0,8,0,8,0,,,,,,,,2.1258120807341943,time,1888.0,16.4697150468755,0.0004645781958888627,0,42,[],0.006464966674684547,None,['space'],218.32032929999696,218.32032929999696,0.19889086666807998,2.3247029474022742,218.52984409999044,218.32032929999696,[-1.8736911000014516],,,,,,,,ttuwra,001,fr,0,2022-04-26_11h01.58.172,Continuous,2022.1.1,37.437030914475784,
7,0,7,0,0,0,0,0,,,,,,227.70355439999548,None,2.2921778119397302,time,1134.0,24.196856983683773,0.0008050553882062752,0,43,[],0.009745366667630151,None,None,228.71820659999503,None,0.20984456666337792,2.502022378603108,228.93665019999025,None,,220.658506199994,None,"[0.5833333333333334, 0.5833333333333334, 0.5833333333333334, 0.5833333333333334, 0.3333333333333333, 0.5833333333333334, 0.3333333333333333, 0.3333333333333333, 0.3333333333333333, 0.5833333333333334, 0.3333333333333333, 0.5833333333333334, 0.3333333333333333, 0.16666666666666666, 0.5833333333333334]",,,,,ttuwra,001,fr,0,2022-04-26_11h01.58.172,Continuous,2022.1.1,37.437030914475784,
7,0,7,0,1,0,1,0,,,,,,,,2.2921778119397302,time,283.0,21.964856007308306,0.0016616192506090184,0,44,[],0.008372466676519252,None,['space'],231.2277463999926,231.2277463999926,0.20656116667669266,2.498738978616423,231.44050309999147,231.2277463999926,[-1.9970770000072662],,,,,,,,ttuwra,001,fr,0,2022-04-26_11h01.58.172,Continuous,2022.1.1,37.437030914475784,
7,0,7,0,2,0,2,0,,,,,,,,2.2921778119397302,time,,,,1,44,[],0.007650366664165631,None,['space'],233.73606660000223,233.73606660000223,0.20470476667105686,2.496882578610787,233.94946859999618,233.73606660000223,[-1.9938559000001987],,,,,,,,ttuwra,001,fr,0,2022-04-26_11h01.58.172,Continuous,2022.1.1,37.437030914475784,
7,0,7,0,3,0,3,0,,,,,,,,2.2921778119397302,time,357.0,21.14533867976989,0.0010008142348162353,0,45,[],0.004622666659997776,0.19652106665307656,None,236.24410149999312,236.24410149999312,0.19652106665307656,2.488698878592807,236.45477109999047,236.24410149999312,,,,,,,,,ttuwra,001,fr,0,2022-04-26_11h01.58.172,Continuous,2022.1.1,37.437030914475784,
7,0,7,0,4,0,4,0,,,,,,,,2.2921778119397302,time,674.0,19.8524014616068,0.00046509092911742696,0,46,[],0.002612566648167558,None,['space'],238.74806659999012,238.74806659999012,0.1932228666410083,2.4854006785807385,238.95813060000364,238.74806659999012,[-2.093800300004659],,,,,,,,ttuwra,001,fr,0,2022-04-26_11h01.58.172,Continuous,2022.1.1,37.437030914475784,
7,0,7,0,5,0,5,0,,,,,,,,2.2921778119397302,time,189.0,25.0,0.005432714291414459,0,47,[],0.008378966653253883,0.20654446665139403,None,241.25492039999517,241.25492039999517,0.20654446665139403,2.4987222785911243,241.4644316999911,241.25492039999517,,,,,,,,,ttuwra,001,fr,0,2022-04-26_11h01.58.172,Continuous,2022.1.1,37.437030914475784,
7,0,7,0,6,0,6,0,,,,,,,,2.2921778119397302,time,757.0,20.354028254225568,0.00042000732209921955,0,48,[],0.00833736667118501,None,['space'],243.7565520999924,243.7565520999924,0.21020636666798964,2.50238417860772,243.96931279999262,243.7565520999924,[-1.9977224000031129],,,,,,,,ttuwra,001,fr,0,2022-04-26_11h01.58.172,Continuous,2022.1.1,37.437030914475784,
7,0,7,0,7,0,7,0,,,,,,,,2.2921778119397302,time,535.0,22.123434229172297,0.0008425872026572688,0,49,[],0.006134166658739559,0.19938436667143833,['space'],246.26657290000003,246.26657290000003,0.19938436667143833,2.4915621786111686,246.4775285999931,246.26657290000003,[-1.9795135000022128],,,,,,,,ttuwra,001,fr,0,2022-04-26_11h01.58.172,Continuous,2022.1.1,37.437030914475784,
8,0,8,0,0,0,0,0,,,,,,257.6937459000037,None,2.756201456312713,none,999.0,17.068283521559046,0.00031412600493990446,0,36,[],0.012900966656161472,None,None,258.7412841000041,None,0.2053923666535411,2.961593822966254,258.9491707999987,None,,248.7706818000006,None,"[0.5833333333333334, 0.3333333333333333, 0.5833333333333334, 0.3333333333333333, 0.5833333333333334, 0.5833333333333334, 0.3333333333333333, 0.5833333333333334, 0.5833333333333334, 0.16666666666666666, 0.16666666666666666, 0.5833333333333334, 0.16666666666666666, 0.3333333333333333, 0.3333333333333333]",,,,,ttuwra,001,fr,0,2022-04-26_11h01.58.172,Continuous,2022.1.1,37.437030914475784,
8,0,8,0,1,0,1,0,,,,,,,,1.862897299331661,none,2828.0,16.323286379137922,0.0004290308797831406,0,37,[],0.00804986666480545,None,None,261.70782480000344,261.70782480000344,0.20522766666545067,2.0681249659971117,261.9205062999972,261.70782480000344,,,,,,,,,ttuwra,001,fr,0,2022-04-26_11h01.58.172,Continuous,2022.1.1,37.437030914475784,
8,0,8,0,2,0,2,0,,,,,,,,1.4439309727545457,none,5339.0,10.925977981746325,0.0004933853279005458,0,38,[],0.0041474666650174186,0.19606236666732002,None,263.7860184000019,263.7860184000019,0.19606236666732002,1.6399933394218658,264.0006985999935,263.7860184000019,,,,,,,,,ttuwra,001,fr,0,2022-04-26_11h01.58.172,Continuous,2022.1.1,37.437030914475784,
8,0,8,0,3,0,3,0,,,,,,,,1.3983462191460898,none,529.0,19.29890921723378,0.0006173136107538059,0,39,[],0.008067166651017033,None,None,265.4475822999957,265.4475822999957,0.22284736664732918,1.621193585793419,265.6804462,265.4475822999957,,,,,,,,,ttuwra,001,fr,0,2022-04-26_11h01.58.172,Continuous,2022.1.1,37.437030914475784,
8,0,8,0,4,0,4,0,,,,,,,,2.568470715195338,none,667.0,10.192183864740544,0.00015492666842781318,0,40,[],0.0014354666782310233,0.1909005666821031,['space'],267.0625815999956,267.0625815999956,0.1909005666821031,2.759371281877441,267.270863800004,267.0625815999956,[-1.1283739000064088],,,,,,,,ttuwra,001,fr,0,2022-04-26_11h01.58.172,Continuous,2022.1.1,37.437030914475784,
8,0,8,0,5,0,5,0,,,,,,,,1.1969104359278393,none,8000.0,10.0,0.0005740768107484417,0,41,[],0.007890866676461883,None,None,269.8407628999994,269.8407628999994,0.20535166667832527,1.4022621026061646,270.0467776000005,269.8407628999994,,,,,,,,,ttuwra,001,fr,0,2022-04-26_11h01.58.172,Continuous,2022.1.1,37.437030914475784,
8,0,8,0,6,0,6,0,,,,,,,,2.0731440037627564,none,,,,1,41,[],0.004200466675683856,None,['space'],271.24599870000384,271.24599870000384,0.20224946667440236,2.275393470437159,271.46568449999904,271.24599870000384,[-0.7512505000049714],,,,,,,,ttuwra,001,fr,0,2022-04-26_11h01.58.172,Continuous,2022.1.1,37.437030914475784,
8,0,8,0,7,0,7,0,,,,,,,,2.3847720952422815,none,1259.0,18.293838397253857,0.00044604434233502896,0,42,[],0.009033866663230583,None,None,273.54315789999964,273.54315789999964,0.20767526666168123,2.5924473619039627,273.75348519999534,273.54315789999964,,,,,,,,,ttuwra,001,fr,0,2022-04-26_11h01.58.172,Continuous,2022.1.1,37.437030914475784,
8,0,8,0,8,0,8,0,,,,,,,,2.708682995725611,none,3563.0,20.635283689082932,0.0008205642009718367,0,43,[],0.0077479666797444224,None,None,276.14537810000184,276.14537810000184,0.2067744666710496,2.9154574623966605,276.3539703999995,276.14537810000184,,,,,,,,,ttuwra,001,fr,0,2022-04-26_11h01.58.172,Continuous,2022.1.1,37.437030914475784,
9,0,9,0,0,0,0,0,,,,,0.3333333333333333,282.57378599999356,None,1.290817116803629,both,6204.0,19.93812159802313,0.0012459296829325929,0,36,[],0.012982166648725979,0.20936956665536854,None,283.61382309999317,None,0.20936956665536854,1.5001866834589976,283.82019649998983,None,,279.06723069999134,None,,,,,,ttuwra,001,fr,0,2022-04-26_11h01.58.172,Continuous,2022.1.1,37.437030914475784,
9,0,9,0,1,0,1,0,,,,,,,,1.290817116803629,both,4924.0,16.342916694825494,0.0009682496510541952,0,37,[],0.003859866672428325,0.19477746666234452,['space'],285.108061299994,285.108061299994,0.19477746666234452,1.4855945834659736,285.32034189999104,285.108061299994,[-0.917698899997049],,,,,,,,ttuwra,001,fr,0,2022-04-26_11h01.58.172,Continuous,2022.1.1,37.437030914475784,
9,0,9,0,2,0,2,0,,,,,,,,1.290817116803629,both,,,,1,37,[],0.006155066657811403,None,['space'],286.60956139999325,286.60956139999325,0.20581606666382868,1.4966331834674578,286.8259536999976,286.60956139999325,[-1.0428792000020621],,,,,,,,ttuwra,001,fr,0,2022-04-26_11h01.58.172,Continuous,2022.1.1,37.437030914475784,
9,0,9,0,3,0,3,0,,,,,,,,1.290817116803629,both,3102.0,21.63288141448932,0.00077812072187527,0,38,[],0.008634166675619781,None,None,288.12108529999387,288.12108529999387,0.20637936667480972,1.4971964834784388,288.3340460000036,288.12108529999387,,,,,,,,,ttuwra,001,fr,0,2022-04-26_11h01.58.172,Continuous,2022.1.1,37.437030914475784,
9,0,9,0,4,0,4,0,,,,,,,,1.290817116803629,both,2462.0,20.0,0.0008505306297983945,0,39,[],0.005507766662049107,0.19921656665974297,['space'],289.62914839999576,289.62914839999576,0.19921656665974297,1.490033683463372,289.83384799999476,289.62914839999576,[-1.0389449000067543],,,,,,,,ttuwra,001,fr,0,2022-04-26_11h01.58.172,Continuous,2022.1.1,37.437030914475784,
9,0,9,0,5,0,5,0,,,,,,,,1.290817116803629,both,1954.0,20.78905755044349,0.0007965164841523725,0,40,[],0.005907266648137011,0.19944746665714774,['space'],291.1311737999931,291.1311737999931,0.19944746665714774,1.4902645834607768,291.33446569999796,291.1311737999931,[-0.8771587999945041],,,,,,,,ttuwra,001,fr,0,2022-04-26_11h01.58.172,Continuous,2022.1.1,37.437030914475784,
9,0,9,0,6,0,6,0,,,,,,,,1.290817116803629,both,1551.0,20.485797403160944,0.0005563737239436439,0,41,[],0.007120166657841764,0.20464336665463634,['space'],292.6324878000014,292.6324878000014,0.20464336665463634,1.4954604834582654,292.83603890000086,292.6324878000014,[-1.066250800009584],,,,,,,,ttuwra,001,fr,0,2022-04-26_11h01.58.172,Continuous,2022.1.1,37.437030914475784,
9,0,9,0,7,0,7,0,,,,,,,,1.290817116803629,both,1231.0,21.098376737646568,0.0006095515630702411,0,42,[],0.007119466652511619,0.20508976666314993,None,294.13280900000245,294.13280900000245,0.20508976666314993,1.495906883466779,294.33693530000164,294.13280900000245,,,,,,,,,ttuwra,001,fr,0,2022-04-26_11h01.58.172,Continuous,2022.1.1,37.437030914475784,
9,0,9,0,8,0,8,0,,,,,,,,1.290817116803629,both,977.0,19.857142390355566,0.00042690795965028466,0,43,[],0.007437266671331599,None,None,295.6331638999982,295.6331638999982,0.2076749666739488,1.498492083477578,295.8417897000036,295.6331638999982,,,,,,,,,ttuwra,001,fr,0,2022-04-26_11h01.58.172,Continuous,2022.1.1,37.437030914475784,
9,0,9,0,9,0,9,0,,,,,,,,1.290817116803629,both,775.0,19.99444619091238,0.0003947954860968117,0,44,[],0.00418716664717067,0.19544396665878594,['space'],297.13800320000155,297.13800320000155,0.19544396665878594,1.486261083462415,297.34250440000324,297.13800320000155,[-1.0280216999963159],,,,,,,,ttuwra,001,fr,0,2022-04-26_11h01.58.172,Continuous,2022.1.1,37.437030914475784,
9,0,9,0,10,0,10,0,,,,,,,,1.290817116803629,both,615.0,19.83909559979872,0.0005252261608031504,0,45,[],0.006718166667269543,0.20532746666867752,['space'],298.63840450000134,298.63840450000134,0.20532746666867752,1.4961445834723066,298.8429254999937,298.63840450000134,[-1.071613400010392],,,,,,,,ttuwra,001,fr,0,2022-04-26_11h01.58.172,Continuous,2022.1.1,37.437030914475784,
9,0,9,0,11,0,11,0,,,,,,,,1.290817116803629,both,488.0,20.0,0.0007205785894458072,0,46,[],0.0054180666484171525,None,None,300.1396917999955,300.1396917999955,0.20945616664539557,1.5002732834490247,300.3555983999977,300.1396917999955,,,,,,,,,ttuwra,001,fr,0,2022-04-26_11h01.58.172,Continuous,2022.1.1,37.437030914475784,
9,0,9,0,12,0,12,0,,,,,,,,1.290817116803629,both,387.0,19.93200552028348,0.0007930603377172647,0,47,[],0.007003166669164784,None,['space'],301.65385029999015,301.65385029999015,0.2160999666666612,1.5069170834702903,301.8715109999903,301.65385029999015,[-1.15953800000716],,,,,,,,ttuwra,001,fr,0,2022-04-26_11h01.58.172,Continuous,2022.1.1,37.437030914475784,
10,0,10,0,0,0,0,0,,,,,0.5833333333333334,311.02892630000133,None,2.125435509263544,frequency,7379.0,11.188031415479777,0.0005899690966611665,0,57,[],0.013099766671075486,None,None,312.0703341999906,None,0.21673626666597556,2.3421717759295198,312.2849053999962,None,,303.15880029999244,None,,,,,,ttuwra,001,fr,0,2022-04-26_11h01.58.172,Continuous,2022.1.1,37.437030914475784,
10,0,10,0,1,0,1,0,,,,,,,,1.1370746140016705,frequency,4925.0,17.0,0.0010448261507526356,0,58,[],0.006775766669306904,None,['space'],314.4148237999907,314.4148237999907,0.2080711666640127,1.3451457806656832,314.62163759999385,314.4148237999907,[-1.8403710999991745],,,,,,,,ttuwra,001,fr,0,2022-04-26_11h01.58.172,Continuous,2022.1.1,37.437030914475784,
10,0,10,0,2,0,2,0,,,,,,,,2.857566931267227,frequency,3287.0,20.237572422027238,0.0007340464656838511,0,59,[],0.005756466664024629,None,['space'],315.7781382999965,315.7781382999965,0.2029574666667031,3.0605243979339303,315.98378460000094,315.7781382999965,[-0.9324503999960143],,,,,,,,ttuwra,001,fr,0,2022-04-26_11h01.58.172,Continuous,2022.1.1,37.437030914475784,
10,0,10,0,3,0,3,0,,,,,,,,2.8230991678833135,frequency,2194.0,21.94554142208792,0.0009897390790896338,0,60,[],0.002945966669358313,None,['space'],318.8449096999975,318.8449096999975,0.19970936667232309,3.0228085345556366,319.06070940000063,318.8449096999975,[-2.510628700008965],,,,,,,,ttuwra,001,fr,0,2022-04-26_11h01.58.172,Continuous,2022.1.1,37.437030914475784,
10,0,10,0,4,0,4,0,,,,,,,,2.072684280445624,frequency,,,,1,60,[],0.007032066670944914,None,['space'],321.892937800003,321.892937800003,0.2074036666599568,2.2800879471055806,322.1018535000039,321.892937800003,[-2.614289299992379],,,,,,,,ttuwra,001,fr,0,2022-04-26_11h01.58.172,Continuous,2022.1.1,37.437030914475784,
10,0,10,0,5,0,5,0,,,,,,,,2.372438917963958,frequency,977.0,17.48000384771788,0.00032469628905805215,0,61,[],0.008024766648304649,None,None,324.18006030000106,324.18006030000106,0.20698846665618476,2.5794273846201428,324.39421459998994,324.18006030000106,,,,,,,,,ttuwra,001,fr,0,2022-04-26_11h01.58.172,Continuous,2022.1.1,37.437030914475784,
10,0,10,0,6,0,6,0,,,,,,,,1.0549829563921265,frequency,652.0,19.059049473214056,0.00044180439785001136,0,62,[],0.00473696667177137,0.1985050666698953,None,326.76835589999973,326.76835589999973,0.1985050666698953,1.2534880230620218,326.972045100003,326.76835589999973,,,,,,,,,ttuwra,001,fr,0,2022-04-26_11h01.58.172,Continuous,2022.1.1,37.437030914475784,
10,0,10,0,7,0,7,0,,,,,,,,1.5548506874590458,frequency,435.0,19.836916927748668,0.0007337530440777402,0,63,[],0.006121466678450815,None,None,328.03428110000095,328.03428110000095,0.20552566667902283,1.7603763541380686,328.24255789999734,328.03428110000095,,,,,,,,,ttuwra,001,fr,0,2022-04-26_11h01.58.172,Continuous,2022.1.1,37.437030914475784,
10,0,10,0,8,0,8,0,,,,,,,,2.1396387085355597,frequency,290.0,18.422234253327957,0.001043256512188206,0,64,[],0.006560266672750004,None,['space'],329.8042762999976,329.8042762999976,0.20356176666973624,2.343200475205296,330.010469300003,329.8042762999976,[-1.2625129999942146],,,,,,,,ttuwra,001,fr,0,2022-04-26_11h01.58.172,Continuous,2022.1.1,37.437030914475784,
10,0,10,0,9,0,9,0,,,,,,,,1.8286811834417827,frequency,194.0,17.370236030345197,0.0021224549938649775,0,65,[],0.005458066676510498,0.20336066666641273,None,332.15689339999517,332.15689339999517,0.20336066666641273,2.0320418501081954,332.36849389999406,332.15689339999517,,,,,,,,,ttuwra,001,fr,0,2022-04-26_11h01.58.172,Continuous,2022.1.1,37.437030914475784,
11,0,11,0,0,0,0,0,,,,,0.5833333333333334,340.25681809999514,None,2.7832604974754207,frequency,1411.0,22.05502554590731,0.0006399512520398793,0,66,[],0.010756666655652225,0.21086176665266976,None,341.286912399999,None,0.21086176665266976,2.9941222641280905,341.4947436999937,None,,334.194743,None,,,,,,ttuwra,001,fr,0,2022-04-26_11h01.58.172,Continuous,2022.1.1,37.437030914475784,
11,0,11,0,1,0,1,0,,,,,,,,1.728479602828892,frequency,942.0,21.386711604514694,0.0004974416740910654,0,67,[],0.006409066671039909,None,['space'],344.2789882999932,344.2789882999932,0.20721896666509565,1.9356985694939877,344.49086369998986,344.2789882999932,[-2.5532186000054935],,,,,,,,ttuwra,001,fr,0,2022-04-26_11h01.58.172,Continuous,2022.1.1,37.437030914475784,
11,0,11,0,2,0,2,0,,,,,,,,1.066165376872917,frequency,629.0,19.84601254641497,0.0005041883140393778,0,68,[],0.0023917666694615036,0.1919669666676782,['space'],346.22284149999905,346.22284149999905,0.1919669666676782,1.258132343540595,346.4296444999927,346.22284149999905,[-1.4878202000109013],,,,,,,,ttuwra,001,fr,0,2022-04-26_11h01.58.172,Continuous,2022.1.1,37.437030914475784,
11,0,11,0,3,0,3,0,,,,,,,,1.9817580359746605,frequency,420.0,21.609841768176725,0.000909129167853432,0,69,[],0.0060784666711697355,None,None,347.5046580999915,347.5046580999915,0.20622076666040812,2.187978802635069,347.71981880000385,347.5046580999915,,,,,,,,,ttuwra,001,fr,0,2022-04-26_11h01.58.172,Continuous,2022.1.1,37.437030914475784,
11,0,11,0,4,0,4,0,,,,,,,,1.538172724871975,frequency,280.0,18.831862144279707,0.0011862450057287736,0,70,[],0.00621336666517891,None,['space'],349.7081255999947,349.7081255999947,0.20431026666483376,1.7424829915368087,349.9199582000001,349.7081255999947,[-1.78985339999781],,,,,,,,ttuwra,001,fr,0,2022-04-26_11h01.58.172,Continuous,2022.1.1,37.437030914475784,
11,0,11,0,5,0,5,0,,,,,,,,2.860901351461244,frequency,187.0,20.555588121294697,0.0033344897962090327,0,71,['frequency'],0.0014631666708737612,0.18982416666403878,['space'],351.4628471000033,351.4628471000033,0.18982416666403878,3.0507255181252826,351.66927099999157,351.4628471000033,[-1.224508599989349],,,,"{'estimation': [[125.0, 21.593337305231827], [128.8649851493597, 22.0], [133.9716828170366, 22.482361135820163], [140.64346648841214, 23.0], [143.5872943746293, 23.213661229931247], [153.89305166811442, 23.592316300316313], [164.93848884661162, 23.444549868331396], [171.44594072505973, 23.0], [176.77669529663666, 22.657485380641404], [182.49704866909423, 22.0], [189.46457081379947, 21.242247983207648], [191.15858587991164, 21.0], [198.11323871379358, 20.0], [203.0630990890585, 19.333221092935858], [205.33352178876476, 19.0], [211.95808211550585, 18.0], [217.6376408240306, 17.190706066466248], [219.11030428554415, 17.0], [226.58786889438795, 16.0], [233.25824788420132, 15.139969364585346], [234.69743399233946, 15.0], [244.80128499283782, 14.0], [249.99999999999937, 13.4989092109193], [259.0095943947701, 13.0], [267.94336563407256, 12.508856898962904], [287.1745887492579, 12.272431523400561], [307.78610333622805, 12.735845946021325], [313.450094177671, 13.0], [329.87697769322244, 13.732141512662643], [334.6097852447955, 14.0], [353.05764594798984, 15.0], [353.55339059327247, 15.02552513957182], [371.4183381389099, 16.0], [378.929141627598, 16.384457647953916], [391.72482497340826, 17.0], [406.12619817811606, 17.653513162707807], [414.81810359469364, 18.0], [435.2752816480601, 18.774187121010183], [442.1505222024255, 19.0], [466.5164957684015, 19.767920050612908], [474.741387011771, 20.0], [499.9999999999975, 20.69426439708391], [512.1050221076198, 21.0], [535.8867312681438, 21.592531343560488], [554.3695827155636, 22.0], [574.3491774985143, 22.437352077747025], [608.0619859654631, 23.0], [615.5722066724546, 23.125359970177993], [659.7539553864432, 23.50818605820635], [707.1067811865431, 23.44085108967984], [744.4079123341807, 23.0], [757.8582832551941, 22.845536442127205], [800.0936467993721, 22.0], [812.2523963562301, 21.766512119884116], [843.3217600673946, 21.0], [870.5505632961181, 20.36552510370347], [885.4107263380134, 20.0], [928.0260072330288, 19.0], [933.0329915368008, 18.889736815699546], [979.2503855513827, 18.0], [999.9999999999926, 17.621915338652098], [1052.982385044583, 17.0], [1071.773462536285, 16.782556213286075], [1148.698354997026, 16.476990749339116], [1231.1444133449063, 16.654634095312865], [1294.657986367064, 17.0], [1319.5079107728832, 17.13493022197702], [1414.2135623730828, 17.644616375838932], [1515.7165665103846, 17.9172707970357], [1624.5047927124563, 17.759332251837893], [1741.1011265922318, 17.11633057081387], [1754.7228806700523, 17.0], [1866.065983073597, 16.083580240979025], [1875.136417499291, 16.0], [1986.815258272006, 15.0], [1999.9999999999802, 14.886425378463734], [2117.6542283161675, 14.0], [2143.5469250725646, 13.812465889415655], [2297.396709994046, 13.124688384916391], [2440.239988735994, 13.0], [2462.2888266898094, 12.98130273057091], [2469.7880075679973, 13.0], [2639.01582154576, 13.404254324088082], [2768.7839633799836, 14.0], [2828.427124746159, 14.264420447017976], [2967.2006570210137, 15.0], [3031.4331330207615, 15.32666837088998], [3176.500341149008, 16.0], [3249.0095854249043, 16.322648856344458], [3474.2921462207555, 17.0], [3482.2022531844555, 17.023073727814968], [3732.1319661471844, 17.300835981632662], [3999.9999999999504, 17.147009075247304], [4084.711928278768, 17.0], [4287.093850145118, 16.66000266962532], [4594.793419988081, 16.002753953852483], [4596.083408299969, 16.0], [4924.577653379601, 15.333178512431953], [5127.208736525964, 15.0], [5278.0316430915, 14.76176795929069], [5656.854249492303, 14.336660623627436], [6062.866266041508, 14.027680518018059], [6109.144544743421, 14.0], [6498.019170849792, 13.777128953392573], [6964.404506368894, 13.526621755886085], [7464.2639322943505, 13.243679639892768], [7895.470614089881, 13.0], [7999.999999999882, 12.939614780676973]], 'plus_line': [[125.0, 17.5593586304151], [128.17835885817348, 18.0], [133.9716828170366, 18.737154487579495], [136.68745348202992, 19.0], [143.58729437462938, 19.609660246449366], [152.00616991559056, 20.0], [153.89305166811442, 20.078203928469208], [164.93848884661162, 20.00273941582306], [164.9822972062272, 20.0], [176.77669529663666, 19.288632546677], [179.36628271130135, 19.0], [189.02944507100688, 18.0], [189.46457081379947, 17.957757384233272], [195.9120060187373, 17.0], [203.0630990890585, 16.088376344645685], [203.6445443366017, 16.0], [209.82231158108385, 15.0], [217.0001544220287, 14.0], [217.63764082403074, 13.918211975963985], [223.884218156422, 13.0], [231.35349359020086, 12.0], [233.25824788420147, 11.767972553513477], [240.24220591869397, 11.0], [249.99999999999937, 10.014026630879172], [250.22730693994993, 10.0], [266.3181986588999, 9.0], [267.94336563407256, 8.900472480336367], [287.1745887492579, 8.58237442614628], [305.20979978253325, 9.0], [307.78610333622805, 9.05421651881175], [327.7074907807344, 10.0], [329.87697769322244, 10.098257433654918], [345.34733965423175, 11.0], [353.55339059327247, 11.46777523361791], [362.6737381603107, 12.0], [378.929141627598, 12.949594297419255], [379.89440818286687, 13.0], [399.5885819332651, 14.0], [406.12619817811606, 14.318365651407216], [422.39142180673906, 15.0], [435.2752816480601, 15.518565794037483], [449.4814657276146, 16.0], [466.5164957684015, 16.550044045815106], [482.60779745153656, 17.0], [499.9999999999975, 17.46329361284279], [522.329902559834, 18.0], [535.8867312681438, 18.312498021031224], [569.4872566662123, 19.0], [574.3491774985143, 19.095857402838817], [615.5722066724546, 19.70419010953595], [655.3406449188034, 20.0], [659.7539553864432, 20.030181885273265], [670.7935791387895, 20.0], [707.1067811865431, 19.892688364399024], [757.8582832551941, 19.254072892190607], [770.3763540503938, 19.0], [812.2523963562301, 18.180116416476142], [819.6868445794164, 18.0], [862.7392901869356, 17.0], [870.5505632961181, 16.830781869659226], [906.0119882122282, 16.0], [933.0329915368008, 15.428108250423737], [955.3515063332463, 15.0], [999.9999999999926, 14.195428275032963], [1015.3342362560968, 14.0], [1071.773462536285, 13.281056565350521], [1120.0612583122381, 13.0], [1148.698354997026, 12.819380613128892], [1231.1444133449063, 12.83452942154681], [1267.68269143311, 13.0], [1319.5079107728832, 13.214751205044273], [1414.2135623730828, 13.710637998285137], [1501.633546628431, 14.0], [1515.7165665103846, 14.041362778441854], [1558.8928452662212, 14.0], [1624.5047927124563, 13.934081203081094], [1741.1011265922318, 13.307418274165574], [1777.3603830051109, 13.0], [1866.065983073597, 12.273537322327524], [1895.598517404926, 12.0], [1999.9999999999802, 11.076214730691056], [2009.8597817084549, 11.0], [2143.5469250725646, 10.002898526041346], [2144.1791213006736, 10.0], [2297.396709994046, 9.30054074161026], [2462.2888266898062, 9.15637593375568], [2639.01582154576, 9.56597797734658], [2730.5674936210853, 10.0], [2828.427124746159, 10.439005341136497], [2930.4975947306643, 11.0], [3031.4331330207656, 11.53567223424104], [3126.65684715494, 12.0], [3249.0095854249043, 12.571291526059088], [3383.604661511942, 13.0], [3482.2022531844555, 13.292048159582652], [3732.1319661471844, 13.543975831595784], [3999.9999999999504, 13.352581397799819], [4202.094616326928, 13.0], [4287.093850145118, 12.846511940565353], [4594.793419988081, 12.200035236385967], [4697.274771418499, 12.0], [4924.577653379601, 11.558892250470137], [5278.031643091506, 11.034573946726251], [5308.938937541097, 11.0], [5656.854249492303, 10.603676351833343], [6062.866266041508, 10.298306777891392], [6498.019170849792, 10.067547699734384], [6630.024969765093, 10.0], [6964.404506368894, 9.821940993599075], [7464.2639322943505, 9.479144277680149], [7961.187682052153, 8.999999999999998], [7999.999999999872, 8.959496007056586]], 'minus_line': [[125.0, 25.766573624617543], [128.3800831128246, 26.0], [133.9716828170366, 26.36281319448331], [143.5872943746293, 26.943225882135472], [145.42812245307016, 27.0], [153.89305166811442, 27.269313425539586], [164.93848884661162, 27.047067523058406], [165.53302831837445, 27.0], [176.77669529663666, 26.178482821694352], [178.2494779003869, 26.0], [186.52152920983704, 25.0], [189.46457081379947, 24.65717195945617], [194.11442038362193, 24.0], [200.67585501845565, 23.0], [203.0630990890585, 22.65743141222412], [207.74514885981918, 22.0], [214.15344605730414, 21.0], [217.6376408240306, 20.477568721928364], [221.5609966923963, 20.0], [229.0649791839995, 19.0], [233.25824788420132, 18.448250840238224], [238.17038079293863, 18.0], [248.53230131020143, 17.0], [249.99999999999937, 16.86326626920606], [266.8196203000471, 16.0], [267.94336563407256, 15.943636320223971], [287.1745887492579, 15.76329792858768], [297.4447847452787, 16.0], [307.78610333622805, 16.245605492634095], [324.7974310168343, 17.0], [329.87697769322244, 17.21796277414337], [344.3237704955784, 18.0], [353.55339059327247, 18.462926681442283], [363.6263765748518, 19.0], [378.929141627598, 19.75254915597162], [384.24805756553246, 20.0], [406.12619817811657, 20.952266156716906], [407.35963713562535, 21.0], [434.3350787601517, 22.0], [435.2752816480601, 22.033332681671993], [465.55767517344907, 23.0], [466.5164957684015, 23.029836722097475], [499.7115179974818, 24.0], [499.9999999999975, 24.008359300891357], [535.8867312681438, 24.998024126209188], [535.9668898072597, 25.0], [574.3491774985143, 25.951020402379125], [576.9230029999852, 26.0], [615.5722066724546, 26.74941600696461], [639.8871916756614, 27.0], [659.7539553864432, 27.217809093318785], [707.1067811865431, 27.208653573151327], [724.3864876865886, 27.0], [757.8582832551941, 26.631611579524048], [787.6993676598489, 26.0], [812.2523963562301, 25.50029548239582], [831.2166995991078, 25.0], [869.0431770743266, 24.0], [870.5505632961181, 23.962908871082217], [907.9175504241025, 23.0], [933.0329915368008, 22.36202734081862], [950.6741043330159, 22.0], [999.8383309993048, 21.0], [999.9999999999926, 20.996925501204252], [1071.773462536285, 20.211907311576788], [1148.698354997026, 20.050583342686558], [1231.1444133449063, 20.427416717343565], [1315.0031545778882, 21.0], [1319.5079107728832, 21.032627201381764], [1414.2135623730828, 21.610858674670517], [1515.7165665103828, 21.866539586399075], [1624.5047927124563, 21.68121949471743], [1740.560369878692, 21.0], [1741.101126592234, 20.997044632979858], [1859.358887425423, 20.0], [1866.065983073597, 19.94557951740044], [1969.654536331699, 19.0], [1999.9999999999827, 18.73016986496431], [2093.467552441301, 18.0], [2143.5469250725646, 17.623223278227716], [2273.9465443413087, 17.0], [2297.396709994046, 16.895694269219497], [2462.2888266898062, 16.749065015170846], [2567.284329338042, 17.0], [2639.01582154576, 17.177502524499666], [2821.4339775220215, 18.0], [2828.427124746159, 18.03118836957457], [3014.848945717388, 19.0], [3031.4331330207615, 19.082618507759513], [3235.8429985818702, 20.0], [3249.0095854249043, 20.05719634648718], [3482.2022531844555, 20.761260315332027], [3686.163453618223, 21.0], [3732.1319661471844, 21.057215672632548], [3852.6725529171545, 21.0], [3999.9999999999504, 20.93859053861869], [4287.093850145118, 20.48373768083625], [4501.707837657887, 20.0], [4594.7934199880865, 19.804935543404994], [4924.577653379601, 19.101973644329327], [4982.337367742935, 19.0], [5278.0316430915, 18.524425148315526], [5656.854249492303, 18.10347917344417], [5798.317604965016, 18.0], [6062.866266041501, 17.82704998490994], [6498.019170849792, 17.604224807510256], [6964.4045063688845, 17.3702481626864], [7464.2639322943505, 17.163839191279976], [7999.999999999882, 17.117027916803377]]}",,,,ttuwra,001,fr,0,2022-04-26_11h01.58.172,Continuous,2022.1.1,37.437030914475784,
11,0,11,0,6,0,6,0,,,,,,,,2.510414913592194,frequency,125.0,22.0,0.00909850429304992,0,72,['frequency'],0.0012741666723741218,0.19153196667321026,['space'],354.5364397999947,354.5364397999947,0.19153196667321026,2.701946880265404,354.7440659999993,354.5364397999947,[-2.665992299997015],,,,,,,,ttuwra,001,fr,0,2022-04-26_11h01.58.172,Continuous,2022.1.1,37.437030914475784,
11,0,11,0,7,0,7,0,,,,,,,,1.7772939162955186,frequency,,,,1,72,['frequency'],0.0019955666502937675,0.1936787666491,['space'],357.2528040000034,357.2528040000034,0.1936787666491,1.9709726829446186,357.4644253000006,357.2528040000034,[-2.3584425000008196],,,,,,,,ttuwra,001,fr,0,2022-04-26_11h01.58.172,Continuous,2022.1.1,37.437030914475784,
12,0,12,0,0,0,0,0,,,,,,365.5365524999943,None,1.0352041318763925,none,1682.0,22.738046653575243,0.0008285541096277977,0,44,['frequency'],0.013036666656262241,None,None,366.5641772999952,None,0.2182423666527029,1.2534464985290954,366.77704479999375,None,,359.23773520000395,None,"[0.5833333333333334, 0.3333333333333333, 0.16666666666666666, 0.3333333333333333, 0.3333333333333333, 0.3333333333333333, 0.5833333333333334, 0.5833333333333334, 0.5833333333333334, 0.16666666666666666, 0.5833333333333334, 0.3333333333333333, 0.16666666666666666, 0.3333333333333333, 0.5833333333333334]",,,,,ttuwra,001,fr,0,2022-04-26_11h01.58.172,Continuous,2022.1.1,37.437030914475784,
12,0,12,0,1,0,1,0,,,,,,,,1.2039598656592245,none,1335.0,19.602116169269554,0.0005005280484236628,0,45,['frequency'],0.004988666652934626,None,['space'],367.8225944000005,367.8225944000005,0.2027988666523015,1.406758732311526,368.0414877000003,367.8225944000005,[-0.7674889999907464],,,,,,,,ttuwra,001,fr,0,2022-04-26_11h01.58.172,Continuous,2022.1.1,37.437030914475784,
12,0,12,0,2,0,2,0,,,,,,,,1.6476868080621483,none,594.0,19.613503355856817,0.0005430947780543407,0,46,['frequency'],0.0053355666605057195,None,['space'],369.2409028999973,369.2409028999973,0.20548306666023564,1.853169874722384,369.4503393999912,369.2409028999973,[-0.9235259999986738],,,,,,,,ttuwra,001,fr,0,2022-04-26_11h01.58.172,Continuous,2022.1.1,37.437030914475784,
12,0,12,0,3,0,3,0,,,,,,,,1.7529455138972074,none,1060.0,19.346989400299957,0.00043189856344298254,0,47,['frequency'],0.0017094666691264138,0.19208916666684672,None,371.10328549999394,371.10328549999394,0.19208916666684672,1.9450346805640542,371.3140932999959,371.10328549999394,,,,,,,,,ttuwra,001,fr,0,2022-04-26_11h01.58.172,Continuous,2022.1.1,37.437030914475784,
12,0,12,0,4,0,4,0,,,,,,,,1.4047134399177863,none,6350.0,11.910334338110967,0.0005182274286159659,0,48,['frequency'],0.004660866659833118,None,None,373.0669212999928,373.0669212999928,0.202122666669311,1.6068361065870973,373.27804079999623,373.0669212999928,,,,,,,,,ttuwra,001,fr,0,2022-04-26_11h01.58.172,Continuous,2022.1.1,37.437030914475784,
12,0,12,0,5,0,5,0,,,,,,,,2.6628403661183717,none,5657.0,19.0,0.0011454206555191208,0,49,['frequency'],0.0015530666714766994,0.19240006666223053,None,374.6888384999911,374.6888384999911,0.19240006666223053,2.8552404327806022,374.90059619999374,374.6888384999911,,,,,,,,,ttuwra,001,fr,0,2022-04-26_11h01.58.172,Continuous,2022.1.1,37.437030914475784,
12,0,12,0,6,0,6,0,,,,,,,,2.554591689292036,none,749.0,19.352729365140437,0.00037804417034326105,0,50,['frequency'],0.005106166645418853,None,['space'],377.5707417999947,377.5707417999947,0.2029164666455472,2.7575081559375834,377.78127939999104,377.5707417999947,[-2.4363981999922544],,,,,,,,ttuwra,001,fr,0,2022-04-26_11h01.58.172,Continuous,2022.1.1,37.437030914475784,
12,0,12,0,7,0,7,0,,,,,,,,1.170660587689046,none,,,,1,50,['frequency'],0.0019678666722029448,0.19466206667129882,['space'],380.34125369999674,380.34125369999674,0.19466206667129882,1.3653226543603447,380.550762999992,380.34125369999674,[-2.246715500004939],,,,,,,,ttuwra,001,fr,0,2022-04-26_11h01.58.172,Continuous,2022.1.1,37.437030914475784,
12,0,12,0,8,0,8,0,,,,,,,,2.838370869513544,none,2520.0,22.112204801172147,0.0010795688156364292,0,51,['frequency'],0.006306266674073413,None,None,381.72493099998974,381.72493099998974,0.20733166666468605,3.04570253617823,381.93758250000246,381.72493099998974,,,,,,,,,ttuwra,001,fr,0,2022-04-26_11h01.58.172,Continuous,2022.1.1,37.437030914475784,
12,0,12,0,9,0,9,0,,,,,,,,1.0764080282094333,none,841.0,19.15419215182799,0.00035865215637997396,0,52,['frequency'],0.001006866674288176,0.19159146667516325,None,384.781253299996,384.781253299996,0.19159146667516325,1.2679994948845965,384.9881374999968,384.781253299996,,,,,,,,,ttuwra,001,fr,0,2022-04-26_11h01.58.172,Continuous,2022.1.1,37.437030914475784,
13,0,13,0,0,0,0,0,,,,,,392.33602649999375,None,2.298363624527851,time,5338.0,16.77882400464475,0.000968150136320991,0,50,['frequency'],0.012799366653780453,None,None,393.3716890999931,None,0.21638196666026488,2.514745591188116,393.58289229999355,None,,386.0741927999916,None,"[0.3333333333333333, 0.16666666666666666, 0.16666666666666666, 0.5833333333333334, 0.3333333333333333, 0.3333333333333333, 0.3333333333333333, 0.16666666666666666, 0.16666666666666666, 0.3333333333333333, 0.5833333333333334, 0.3333333333333333, 0.16666666666666666, 0.3333333333333333, 0.5833333333333334]",,,,,ttuwra,001,fr,0,2022-04-26_11h01.58.172,Continuous,2022.1.1,37.437030914475784,
13,0,13,0,1,0,1,0,,,,,,,,2.298363624527851,time,7549.0,12.176452520562648,0.0006820102670115016,0,51,['frequency'],0.014711733325384557,None,['space'],395.88451969999005,395.88451969999005,0.24065413333300967,2.5390177578608606,396.1231117999996,395.88451969999005,[-1.998349200002849],,,,,,,,ttuwra,001,fr,0,2022-04-26_11h01.58.172,Continuous,2022.1.1,37.437030914475784,
13,0,13,0,2,0,2,0,,,,,,,,2.298363624527851,time,3563.0,19.840166380982147,0.0007487842494736423,0,52,['frequency'],0.0006384666776284575,None,['space'],398.41737009999633,398.41737009999633,0.19506216667650733,2.4934257912043583,398.6345094999997,398.41737009999633,[-2.051494899991667],,,,,,,,ttuwra,001,fr,0,2022-04-26_11h01.58.172,Continuous,2022.1.1,37.437030914475784,
13,0,13,0,3,0,3,0,,,,,,,,2.298363624527851,time,2828.0,18.0,0.0005203843569988895,0,53,['frequency'],0.004746066668303683,0.20052076666615903,['space'],400.9432134999952,400.9432134999952,0.20052076666615903,2.49888439119401,401.1495289000013,400.9432134999952,[-2.0490133999992395],,,,,,,,ttuwra,001,fr,0,2022-04-26_11h01.58.172,Continuous,2022.1.1,37.437030914475784,
13,0,13,0,4,0,4,0,,,,,,,,2.298363624527851,time,1122.0,20.63778887649331,0.0005290055896821792,0,54,['frequency'],0.0012951666576554999,0.19306126666197088,None,403.4523810999963,403.4523810999963,0.19306126666197088,2.491424891189822,403.6668539999955,403.4523810999963,,,,,,,,,ttuwra,001,fr,0,2022-04-26_11h01.58.172,Continuous,2022.1.1,37.437030914475784,
13,0,13,0,5,0,5,0,,,,,,,,2.298363624527851,time,1781.0,18.84195428239003,0.000568195755199621,0,55,['frequency'],0.0004255666717654094,0.19134346666396596,['space'],405.9713733999961,405.9713733999961,0.19134346666396596,2.489707091191817,406.1791513999924,405.9713733999961,[-1.9724903000023915],,,,,,,,ttuwra,001,fr,0,2022-04-26_11h01.58.172,Continuous,2022.1.1,37.437030914475784,
13,0,13,0,6,0,6,0,,,,,,,,2.298363624527851,time,6725.0,17.221691650503253,0.0010377402681575033,0,56,['frequency'],0.014177333330735564,None,['space'],408.48159919999307,408.48159919999307,0.23354993332759477,2.5319135578554457,408.7103325999924,408.48159919999307,[-2.0193041000020457],,,,,,,,ttuwra,001,fr,0,2022-04-26_11h01.58.172,Continuous,2022.1.1,37.437030914475784,
13,0,13,0,7,0,7,0,,,,,,,,2.298363624527851,time,667.0,18.861168496428014,0.00042031550736231843,0,57,['frequency'],0.00019246665760874748,0.18915256665786728,['space'],411.00805879999825,411.00805879999825,0.18915256665786728,2.487516191185718,411.21460279999883,411.00805879999825,[-2.0497221000114223],,,,,,,,ttuwra,001,fr,0,2022-04-26_11h01.58.172,Continuous,2022.1.1,37.437030914475784,
13,0,13,0,8,0,8,0,,,,,,,,2.298363624527851,time,749.0,18.732954223523425,0.00035200901689465497,0,58,['frequency'],0.004511866674874909,None,['space'],413.5241024999996,413.5241024999996,0.20360276667634025,2.501966391204191,413.73361300000397,413.5241024999996,[-1.9253358999994816],,,,,,,,ttuwra,001,fr,0,2022-04-26_11h01.58.172,Continuous,2022.1.1,37.437030914475784,
13,0,13,0,9,0,9,0,,,,,,,,2.298363624527851,time,2519.0,20.107039643875122,0.0008576513382977464,0,59,['frequency'],0.013515333354007453,None,['space'],416.04100820000167,416.04100820000167,0.24918863334460184,2.5475522578724528,416.2891273999994,416.04100820000167,[-1.9945361999998568],,,,,,,,ttuwra,001,fr,0,2022-04-26_11h01.58.172,Continuous,2022.1.1,37.437030914475784,
13,0,13,0,10,0,10,0,,,,,,,,2.298363624527851,time,,,,1,59,['frequency'],0.0001257666590390727,None,None,418.5828532000014,418.5828532000014,0.19474706666369457,2.4931106911915455,418.7972749999899,418.5828532000014,,,,,,,,,ttuwra,001,fr,0,2022-04-26_11h01.58.172,Continuous,2022.1.1,37.437030914475784,
13,0,13,0,11,0,11,0,,,,,,,,2.298363624527851,time,1414.0,18.146492574587846,0.00040745476809933215,0,60,['frequency'],0.004383066654554568,0.19991536665474996,None,421.10010329999204,421.10010329999204,0.19991536665474996,2.498278991182601,421.3055128999986,421.10010329999204,,,,,,,,,ttuwra,001,fr,0,2022-04-26_11h01.58.172,Continuous,2022.1.1,37.437030914475784,
13,0,13,0,12,0,12,0,,,,,,,,2.298363624527851,time,594.0,18.988265953332025,0.0005053750029462055,0,61,['frequency'],0.01466253335820511,None,['space'],423.6129651999945,423.6129651999945,0.23948533335351385,2.5378489578813648,423.847185599996,423.6129651999945,[-2.030650400003651],,,,,,,,ttuwra,001,fr,0,2022-04-26_11h01.58.172,Continuous,2022.1.1,37.437030914475784,
14,0,14,0,0,0,0,0,,,,,0.5833333333333334,430.98213839999516,None,2.3873226479425824,both,8000.0,13.0,0.0008109050486794653,0,48,['frequency'],0.01298346665862482,None,None,432.0180849000026,None,0.21460056665819138,2.601923214600774,432.22335020000173,None,,426.1514385999908,None,,,,,,ttuwra,001,fr,0,2022-04-26_11h01.58.172,Continuous,2022.1.1,37.437030914475784,
14,0,14,0,1,0,1,0,,,,,,,,2.3873226479425824,both,5339.0,13.430547192393423,0.0006582861092898007,0,49,['frequency'],0.00014566666504833847,0.19222976666060276,['space'],434.6168483999936,434.6168483999936,0.19222976666060276,2.579552414603185,434.82836859999225,434.6168483999936,[-2.0421580000111135],,,,,,,,ttuwra,001,fr,0,2022-04-26_11h01.58.172,Continuous,2022.1.1,37.437030914475784,
14,0,14,0,2,0,2,0,,,,,,,,2.3873226479425824,both,3563.0,14.237985346900178,0.00039286889814903805,0,50,['frequency'],0.002917966659879312,0.1987644666514825,None,437.21730389998993,437.21730389998993,0.1987644666514825,2.586087114594065,437.4226928999997,437.21730389998993,,,,,,,,,ttuwra,001,fr,0,2022-04-26_11h01.58.172,Continuous,2022.1.1,37.437030914475784,
14,0,14,0,3,0,3,0,,,,,,,,2.3873226479425824,both,2378.0,16.886428007159193,0.000581296633739795,0,51,['frequency'],0.003901166666764766,0.20197486666438635,None,439.8196054,439.8196054,0.20197486666438635,2.5892975146069688,440.023915400001,439.8196054,,,,,,,,,ttuwra,001,fr,0,2022-04-26_11h01.58.172,Continuous,2022.1.1,37.437030914475784,
14,0,14,0,4,0,4,0,,,,,,,,2.3873226479425824,both,1587.0,21.598085536885193,0.0006689403664436608,0,52,['frequency'],0.003854866648907773,None,None,442.4211532999907,442.4211532999907,0.20256886664719786,2.5898915145897803,442.63255909999134,442.4211532999907,,,,,,,,,ttuwra,001,fr,0,2022-04-26_11h01.58.172,Continuous,2022.1.1,37.437030914475784,
14,0,14,0,5,0,5,0,,,,,,,,2.3873226479425824,both,,,,1,52,['frequency'],0.01658723334548995,None,['space'],445.0272079999995,445.0272079999995,0.23423353335238062,2.621556181294963,445.25540029999684,445.0272079999995,[-2.100413699998171],,,,,,,,ttuwra,001,fr,0,2022-04-26_11h01.58.172,Continuous,2022.1.1,37.437030914475784,
14,0,14,0,6,0,6,0,,,,,,,,2.3873226479425824,both,707.0,16.629107688636743,0.0003012719961318372,0,53,['frequency'],0.005014766662498005,None,None,447.64394169999287,447.64394169999287,0.2025410666683456,2.589863714610928,447.8552636999957,447.64394169999287,,,,,,,,,ttuwra,001,fr,0,2022-04-26_11h01.58.172,Continuous,2022.1.1,37.437030914475784,
14,0,14,0,7,0,7,0,,,,,,,,2.3873226479425824,both,472.0,18.267080889491698,0.0005969459877871446,0,54,['frequency'],0.003866066675982438,None,None,450.24753860000055,450.24753860000055,0.20316616668424103,2.5904888146268235,450.45824469999934,450.24753860000055,,,,,,,,,ttuwra,001,fr,0,2022-04-26_11h01.58.172,Continuous,2022.1.1,37.437030914475784,
14,0,14,0,8,0,8,0,,,,,,,,2.3873226479425824,both,315.0,14.318990666580442,0.0005127663742601449,0,55,['frequency'],0.0005857666692463681,0.19322336665936746,['space'],452.8551216999913,452.8551216999913,0.19322336665936746,2.58054601460195,453.0667240000039,452.8551216999913,[-1.9129749999992782],,,,,,,,ttuwra,001,fr,0,2022-04-26_11h01.58.172,Continuous,2022.1.1,37.437030914475784,
15,0,15,0,0,0,0,0,,,,,,460.7057832999999,None,2.279961850238683,time,882.0,21.975024795644224,0.0005108947176716819,0,62,['frequency'],0.011417266665375791,None,None,461.7459605999902,None,0.21482736666803248,2.4947892169067156,461.9692370999983,None,,455.45599879999645,None,"[0.16666666666666666, 0.3333333333333333, 0.5833333333333334, 0.3333333333333333, 0.16666666666666666, 0.3333333333333333, 0.5833333333333334, 0.3333333333333333, 0.3333333333333333, 0.3333333333333333, 0.5833333333333334, 0.5833333333333334, 0.5833333333333334, 0.3333333333333333, 0.16666666666666666]",,,,,ttuwra,001,fr,0,2022-04-26_11h01.58.172,Continuous,2022.1.1,37.437030914475784,
15,0,15,0,1,0,1,0,,,,,,,,2.279961850238683,time,165.0,30.0,0.01242495060017466,0,63,['frequency'],0.0002994666574522853,0.19198876665905118,None,464.2493053999933,464.2493053999933,0.19198876665905118,2.4719506168977343,464.46231219999027,464.2493053999933,,,,,,,,,ttuwra,001,fr,0,2022-04-26_11h01.58.172,Continuous,2022.1.1,37.437030914475784,
15,0,15,0,2,0,2,0,,,,,,,,2.279961850238683,time,467.0,27.611502623381092,0.0017566126029037073,0,64,['frequency'],0.016049133337219246,None,['space'],466.7499484,466.7499484,0.2362450333457673,2.5162068835844504,466.97702469999786,466.7499484,[-2.0639531000051647],,,,,,,,ttuwra,001,fr,0,2022-04-26_11h01.58.172,Continuous,2022.1.1,37.437030914475784,
15,0,15,0,3,0,3,0,,,,,,,,2.279961850238683,time,208.0,29.441088965745394,0.00740614933367324,0,65,['frequency'],0.013502933332347311,None,['space'],469.26273239999136,469.26273239999136,0.23350623332953546,2.5134680835682186,469.49246209999546,469.26273239999136,[-2.112171300002956],,,,,,,,ttuwra,001,fr,0,2022-04-26_11h01.58.172,Continuous,2022.1.1,37.437030914475784,
15,0,15,0,4,0,4,0,,,,,,,,2.279961850238683,time,,,,1,65,['frequency'],0.010378033344750293,None,['space'],471.78100760000234,471.78100760000234,0.22844273335067555,2.5084045835893587,472.00832269999955,471.78100760000234,[-2.1195829000062076],,,,,,,,ttuwra,001,fr,0,2022-04-26_11h01.58.172,Continuous,2022.1.1,37.437030914475784,
15,0,15,0,5,0,5,0,,,,,,,,2.279961850238683,time,131.0,24.02310377867552,0.010635990815391074,0,66,['frequency'],0.004097066659596749,None,None,474.2896680999984,474.2896680999984,0.19913006665592548,2.4790919168946086,474.497581299991,474.2896680999984,,,,,,,,,ttuwra,001,fr,0,2022-04-26_11h01.58.172,Continuous,2022.1.1,37.437030914475784,
15,0,15,0,6,0,6,0,,,,,,,,2.279961850238683,time,700.0,25.160182939986463,0.0008155940790740016,0,67,['frequency'],0.012720233324216679,None,['space'],476.78920339999604,476.78920339999604,0.2300819333322579,2.510043783570941,477.01900240000396,476.78920339999604,[-2.039707299991278],,,,,,,,ttuwra,001,fr,0,2022-04-26_11h01.58.172,Continuous,2022.1.1,37.437030914475784,
15,0,15,0,7,0,7,0,,,,,,,,2.279961850238683,time,990.0,27.11702190898091,0.000993138988532739,0,68,['frequency'],0.01568023333675228,None,['space'],479.2968938999984,479.2968938999984,0.2350425333424937,2.515004383581177,479.5234472000011,479.2968938999984,[-2.066114400004153],,,,,,,,ttuwra,001,fr,0,2022-04-26_11h01.58.172,Continuous,2022.1.1,37.437030914475784,
16,0,16,0,0,0,0,0,,,,,,485.5827519000013,None,2.779574477212279,time,125.0,28.0,0.018153902738505076,0,69,['frequency'],0.00938396665151231,None,None,486.60729580000043,None,0.2069055666506756,2.9864800438629544,486.8178454000008,None,,481.806038900002,None,"[0.3333333333333333, 0.3333333333333333, 0.16666666666666666, 0.5833333333333334, 0.16666666666666666, 0.16666666666666666, 0.16666666666666666, 0.16666666666666666, 0.5833333333333334, 0.3333333333333333, 0.16666666666666666, 0.5833333333333334, 0.16666666666666666, 0.3333333333333333, 0.3333333333333333]",,,,,ttuwra,001,fr,0,2022-04-26_11h01.58.172,Continuous,2022.1.1,37.437030914475784,
16,0,16,0,1,0,1,0,,,,,,,,2.779574477212279,time,264.0,27.42113114112417,0.00358720497983556,0,70,['frequency'],0.001460666666389443,None,['space'],489.6057387999899,489.6057387999899,0.19537246666732244,2.9749469438796012,489.8164276000025,489.6057387999899,[-2.4872928999975557],,,,,,,,ttuwra,001,fr,0,2022-04-26_11h01.58.172,Continuous,2022.1.1,37.437030914475784,
16,0,16,0,2,0,2,0,,,,,,,,2.779574477212279,time,296.0,27.432604144325563,0.0027942385883933207,0,71,"['frequency', 'time']",0.0030451666534645483,None,['space'],492.60906010000326,492.60906010000326,0.20298616665240843,2.9825606438646872,492.818019600003,492.60906010000326,[-2.594868200001656],,,,,"{'estimation': [[125.0, 27.654347675862407], [126.46629944620582, 28.000000000000004], [130.84882273004294, 29.0], [133.9716828170366, 29.653111876388902], [136.11677578344657, 30.0], [142.47790183922942, 31.0], [143.5872943746293, 31.167155030572097], [153.89305166811442, 31.951615314275664], [164.93848884661162, 31.868827864683638], [175.73148658589156, 31.0], [176.77669529663666, 30.91971054182433], [183.6801924931884, 30.0], [189.46457081379947, 29.266077560514674], [191.17902939418477, 29.0], [197.62445854949894, 28.0], [203.0630990890585, 27.197065400234884], [204.40464242259836, 27.0], [211.16088570421613, 26.0], [217.6376408240306, 25.07920552436652], [218.3119055966709, 25.0], [226.81411986112627, 24.0], [233.25824788420132, 23.267987755014442], [236.78915348426867, 23.0], [249.99999999999937, 22.021540394370035], [250.64649973422178, 22.0], [267.94336563407256, 21.44451259811352], [287.1745887492579, 21.461037657360478], [307.78610333622805, 21.84359584547986], [315.4602125584528, 22.0], [329.87697769322244, 22.285980359680543], [353.55339059327247, 22.48005291085739], [378.929141627598, 22.215965423271843], [386.19919371014197, 22.0], [406.12619817811606, 21.425391655346466], [415.9680879246066, 21.0], [435.2752816480601, 20.196579730937874], [439.30072201419046, 20.0], [460.5350008393714, 19.0], [466.5164957684015, 18.733657578151632], [483.08148401966366, 18.0], [499.9999999999975, 17.300097331328153], [508.75353889599677, 17.0], [535.8867312681438, 16.133633814741508], [542.5249722113095, 16.0], [574.3491774985143, 15.404170824339461], [615.5722066724546, 15.191209839861036], [659.7539553864432, 15.484228721544056], [692.0964887345301, 16.0], [707.1067811865431, 16.227025027384435], [742.2482778112598, 17.0], [757.8582832551941, 17.329289427499535], [784.1613493904216, 18.0], [812.2523963562301, 18.696165641576297], [823.7246177679126, 19.0], [861.6971754497137, 20.0], [870.5505632961181, 20.225159766567604], [901.4140602639164, 21.0], [933.0329915368008, 21.775290984290564], [943.5709796480779, 21.999999999999996], [990.9198272904566, 23.0], [999.9999999999926, 23.186016559289175], [1054.2745720768985, 24.0], [1071.773462536285, 24.257544023429205], [1148.698354997026, 24.803519131250987], [1231.1444133449063, 24.69980452769593], [1310.2661847199006, 24.0], [1319.5079107728832, 23.918888930874903], [1383.3931776818204, 23.0], [1414.2135623730828, 22.566019990856596], [1447.2166928815861, 22.0], [1506.5985625647088, 21.0], [1515.7165665103846, 20.85263867264053], [1566.1768924197713, 20.0], [1624.5047927124563, 19.05765450561801], [1628.4960961491233, 19.0], [1699.161577903315, 18.0], [1741.1011265922318, 17.441295768514998], [1783.8318733491412, 17.0], [1866.065983073597, 16.18866458435514], [1896.020508241797, 16.0], [1999.9999999999802, 15.367603708712158], [2122.4524393021584, 15.0], [2143.5469250725646, 14.937662367856843], [2297.3967099940432, 14.795606990815585], [2462.2888266898062, 14.833723362156487], [2639.01582154576, 14.99586078398514], [2641.4799770674035, 14.999999999999998], [2828.427124746159, 15.296641459865299], [3031.433133020758, 15.800808639286196], [3085.3915761140747, 16.0], [3249.0095854249043, 16.58072635623835], [3340.083706648468, 17.0], [3482.2022531844555, 17.640334598839107], [3554.259745385713, 18.0], [3732.1319661471844, 18.882321484377616], [3758.0915450053894, 19.0], [3977.9077836995034, 20.0], [3999.9999999999504, 20.100117170521465], [4284.049988270205, 21.0], [4287.093850145118, 21.00968866854192], [4594.793419988081, 21.33536090540493], [4832.313757050641, 21.0], [4924.577653379601, 20.873329869119566], [5160.15224205345, 20.0], [5278.031643091513, 19.58070679399559], [5384.858892112863, 19.0], [5573.061264831193, 18.0], [5656.854249492303, 17.580324244485062], [5750.821897947114, 17.0], [5914.193085859696, 16.0], [6062.866266041508, 15.155766585300514], [6089.2133573804, 15.0], [6257.997235314468, 14.0], [6435.979556452698, 13.0], [6498.019170849792, 12.678388790982204], [6639.5182444053435, 12.0], [6855.061067009128, 11.0], [6964.404506368894, 10.532692299050822], [7136.321253195785, 10.0], [7464.2639322943505, 9.02227135723884], [7481.461891157235, 9.0], [7999.999999999872, 8.315686865623482]], 'plus_line': [[125.0, 23.017847227064486], [129.03281501005003, 24.0], [133.0170164002526, 25.0], [133.9716828170366, 25.222483212237695], [138.85611599952477, 26.0], [143.5872943746293, 26.75851328745682], [146.75467690469833, 27.0], [153.89305166811442, 27.515586113869283], [164.93848884661162, 27.437445180919802], [170.56994411998815, 27.0], [176.77669529663666, 26.533665874974105], [180.79720316051583, 26.0], [188.96834848062713, 25.0], [189.46457081379958, 24.942383758691964], [195.32136831551986, 24.0], [202.30553603418758, 23.0], [203.0630990890585, 22.898222134797702], [208.80383746544751, 22.0], [215.8265781195248, 21.0], [217.6376408240306, 20.761753480294047], [223.74493944985994, 20.0], [232.49920531497298, 19.0], [233.25824788420132, 18.917484445368018], [244.98603083256376, 18.0], [249.99999999999937, 17.63039623112211], [267.94336563407256, 17.056474254800747], [287.1745887492579, 17.089672526007057], [307.78610333622805, 17.484297620627203], [329.87697769322244, 17.925959271772737], [341.1133230246296, 18.0], [353.55339059327247, 18.073628203095655], [359.17913853708393, 18.0], [378.929141627598, 17.731034706860576], [402.62159465350584, 17.0], [406.12619817811606, 16.892003538810712], [426.8526775555736, 16.0], [435.2752816480596, 15.656538219529008], [449.3672372112361, 15.0], [466.5164957684015, 14.262292187558302], [472.8030912939613, 14.0], [498.5432228361897, 13.000000000000002], [499.9999999999981, 12.946424776771588], [532.6255847147461, 12.0], [535.8867312681438, 11.9110110784016], [574.3491774985143, 11.307966373364815], [615.5722066724546, 11.218837200104918], [659.7539553864432, 11.614587600273207], [680.9964143314509, 12.0], [707.1067811865431, 12.437075840229623], [731.6795100891883, 13.0], [757.8582832551941, 13.580997567298347], [774.452867848873, 14.0], [812.2523963562301, 14.967208535231919], [813.530163335829, 15.0], [852.5654963135938, 16.0], [870.5505632961181, 16.464977765201972], [892.6981049855763, 17.0], [932.6016732944414, 18.0], [933.0329915368008, 18.01032258409702], [981.3376861651662, 19.0], [999.9999999999926, 19.3821484214528], [1042.7394843239595, 20.0], [1071.773462536285, 20.409210399926383], [1148.698354997026, 20.884932167037775], [1231.1444133449063, 20.66710677245134], [1297.7686505129946, 20.0], [1319.5079107728832, 19.78109665538815], [1369.9895729480704, 19.0], [1414.2135623730828, 18.355293201941308], [1434.2667332074216, 18.0], [1492.4978060209157, 17.0], [1515.7165665103864, 16.633455527726543], [1552.97606512215, 16.0], [1617.4167395207928, 15.0], [1624.5047927124563, 14.896795297321667], [1688.9545705429382, 14.0], [1741.1011265922318, 13.350614869603397], [1776.0187329739197, 13.0], [1866.065983073597, 12.15060831769265], [1889.7659006180597, 12.0], [1999.9999999999802, 11.310467472984522], [2092.259848159654, 11.0], [2143.5469250725646, 10.820637529519683], [2297.396709994046, 10.61199532290992], [2462.2888266898062, 10.63240029450948], [2639.01582154576, 10.835626417902843], [2718.1598475182004, 11.0], [2828.427124746159, 11.203306551763948], [3031.4331330207615, 11.763539966153013], [3093.261324137254, 12.0], [3249.0095854249043, 12.55741403165413], [3348.1418470747617, 13.0], [3482.2022531844555, 13.582078529926378], [3572.2379043169094, 13.999999999999998], [3732.1319661471844, 14.740472028751626], [3795.4240942626925, 15.0], [3999.9999999999554, 15.836804145265122], [4058.8614509378153, 16.0], [4287.093850145118, 16.610639805800254], [4594.793419988081, 16.83343317943677], [4924.577653379601, 16.322506077587605], [5010.9194081182995, 16.0], [5278.0316430915, 15.055232085182826], [5288.307604667623, 15.0], [5473.71335081872, 14.0], [5656.854249492303, 13.132945430067043], [5678.733695057727, 13.0], [5841.213331243052, 12.0], [6028.360054661847, 11.0], [6062.866266041508, 10.830736418168241], [6204.000545965402, 10.0], [6390.890982302701, 9.0], [6498.019170849792, 8.500014224499457], [6604.553966941841, 8.0], [6830.964945279717, 6.999999999999999], [6964.404506368894, 6.4842143862433685], [7118.943094813968, 6.0], [7464.2639322943505, 5.003257576437084], [7466.172605558262, 5.0], [7999.999999999882, 4.065984269068256]], 'minus_line': [[125.0, 32.491878782258354], [127.32140574925025, 33.0], [132.34946294449622, 34.0], [133.9716828170366, 34.29157950942209], [138.30440827845817, 35.0], [143.5872943746293, 35.79265943909105], [146.1583927913559, 36.0], [153.89305166811442, 36.617600644221014], [164.93848884661162, 36.523364746916414], [170.84502068259562, 36.0], [176.77669529663666, 35.50053298288863], [180.4119534847282, 35.0], [187.54503136514552, 34.0], [189.46457081379958, 33.741749454960456], [194.31189939278715, 33.0], [200.48096958713447, 32.0], [203.0630990890585, 31.596354359795498], [207.26609836958366, 31.0], [213.90063162514366, 30.0], [217.6376408240306, 29.44481320103072], [221.57876049913764, 29.0], [230.1006407901072, 28.000000000000004], [233.25824788420132, 27.635991423630877], [241.9397846650309, 27.0], [249.99999999999937, 26.41433697514521], [262.97544499677446, 26.0], [267.94336563407256, 25.851968081204816], [287.1745887492579, 25.8847604205813], [293.03211668273383, 26.000000000000004], [307.78610333622805, 26.300065518756934], [329.87697769322244, 26.784426914609384], [349.790451080819, 27.0], [353.55339059327247, 27.04337683351178], [358.7658013459036, 27.0], [378.929141627598, 26.849039213098305], [406.12619817811606, 26.07915499954165], [407.87317116808475, 26.0], [430.5780913174548, 25.0], [435.2752816480601, 24.800261150814492], [450.9313645498643, 24.0], [466.5164957684015, 23.212216359817276], [470.81186897169243, 23.0], [491.43524071984854, 22.0], [499.9999999999975, 21.604392943256286], [515.6488686238783, 21.0], [535.8867312681438, 20.25375922509313], [546.1565490306274, 20.0], [574.3491774985143, 19.364475568149395], [615.5722066724546, 19.005023501508322], [659.7539553864432, 19.20976815438327], [707.1067811865431, 19.885666127756], [712.2466178061777, 20.0], [757.8582832551941, 20.973821543844352], [758.8451686870545, 21.0], [796.4357568952803, 22.0], [812.2523963562301, 22.389829729846866], [833.8614319617403, 23.0], [870.5505632961181, 23.9637270752393], [871.9170027873787, 24.0], [908.8702063295618, 25.0], [933.0329915368008, 25.59614693471083], [950.7950971193683, 26.0], [996.7832732791896, 27.0], [999.9999999999926, 27.067552856155928], [1057.065602607608, 28.0], [1071.773462536285, 28.2329944179292], [1148.698354997026, 28.884259603212058], [1231.1444133449063, 28.901607668922228], [1319.5079107728832, 28.23119086340003], [1336.270077722608, 28.0], [1408.2663729321177, 27.0], [1414.2135623730828, 26.919199599065074], [1468.9173522735925, 26.0], [1515.7165665103846, 25.187369182698173], [1526.7055040892074, 25.0], [1584.6020317353214, 24.0], [1624.5047927124563, 23.30721563163566], [1645.3448550489081, 23.0], [1712.4295665364602, 22.0], [1741.1011265922318, 21.585380861969824], [1795.9762861203112, 21.0], [1866.065983073597, 20.264068263086706], [1907.8829541562345, 20.0], [1999.9999999999802, 19.450636147433784], [2143.5469250725646, 19.071853538567254], [2271.433723729822, 19.0], [2297.396709994046, 18.987021511519313], [2339.9704385947625, 19.0], [2462.2888266898062, 19.039882033632583], [2639.01582154576, 19.16209236208208], [2828.427124746159, 19.3937183808741], [3031.4331330207615, 19.8366246945067], [3076.248261051286, 20.0], [3249.0095854249043, 20.622068766065777], [3325.781154214597, 21.0], [3482.2022531844596, 21.750705329906353], [3526.8539579505386, 22.0], [3707.962915613044, 23.0], [3732.1319661471844, 23.13021581953314], [3895.5479605830033, 24.0], [3999.9999999999504, 24.537162581372794], [4121.394885809124, 25.0], [4287.093850145118, 25.633043088720385], [4537.4289057812, 26.0], [4594.793419988081, 26.08902610099056], [4662.624851503736, 26.0], [4924.577653379601, 25.685174248264296], [5103.391315919315, 25.0], [5278.031643091506, 24.340153028390954], [5339.218888909208, 24.0], [5515.056719742152, 23.0], [5656.854249492303, 22.192181783514084], [5687.907439579876, 22.0], [5844.755860225132, 21.0], [5993.526764923918, 20.0], [6062.866266041508, 19.56357579034698], [6157.995719241717, 19.0], [6315.637706122416, 18.0], [6472.107828375134, 17.0], [6498.019170849792, 16.849636954969597], [6672.3660366801405, 16.0], [6865.417159872834, 14.999999999999998], [6964.404506368894, 14.519531510058549], [7132.252587244123, 14.0], [7448.723604270045, 13.0], [7464.26393229436, 12.953407946944784], [7999.999999999882, 12.501590474460821]]}",,,ttuwra,001,fr,0,2022-04-26_11h01.58.172,Continuous,2022.1.1,37.437030914475784,
16,0,16,0,3,0,3,0,,,,,,,,2.779574477212279,time,,,,1,71,"['frequency', 'time']",0.01030813335091807,None,['space'],495.60863819999213,495.60863819999213,0.2285320333467098,3.0081065105589886,495.8376885000034,495.60863819999213,[-2.6984597999980906],,,,,,,,ttuwra,001,fr,0,2022-04-26_11h01.58.172,Continuous,2022.1.1,37.437030914475784,
16,0,16,0,4,0,4,0,,,,,,,,2.779574477212279,time,470.0,22.82932203632347,0.0010107777686227729,0,72,"['frequency', 'time']",0.01602413333603181,None,None,498.617639899996,498.617639899996,0.23522413334285375,3.0147986105551325,498.8460694999958,498.617639899996,,,,,,,,,ttuwra,001,fr,0,2022-04-26_11h01.58.172,Continuous,2022.1.1,37.437030914475784,
16,0,16,0,5,0,5,0,,,,,,,,2.779574477212279,time,157.0,22.014177018655555,0.0055209541666888075,0,73,"['frequency', 'time']",0.01568043333827518,None,['space'],501.6252495999943,501.6252495999943,0.23345713333401363,3.0130316105462924,501.85480619999,501.6252495999943,[-2.5386616999894613],,,,,,,,ttuwra,001,fr,0,2022-04-26_11h01.58.172,Continuous,2022.1.1,37.437030914475784,
16,0,16,0,6,0,6,0,,,,,,,,2.779574477212279,time,373.0,27.279068364981153,0.0019318423421001282,0,74,"['frequency', 'time']",0.01019913332129363,None,['space'],504.6365355000016,504.6365355000016,0.22853783331811428,3.008112310530393,504.86809679999715,504.6365355000016,[-2.6066559000028064],,,,,,,,ttuwra,001,fr,0,2022-04-26_11h01.58.172,Continuous,2022.1.1,37.437030914475784,
16,0,16,0,7,0,7,0,,,,,,,,2.779574477212279,time,176.0,21.11168792720335,0.004010274760803439,0,75,"['frequency', 'time']",0.015348833345342427,None,['space'],507.64609739999287,507.64609739999287,0.23542173334863037,3.014996210560909,507.87541059999785,507.64609739999287,[-2.6073285000020405],,,,,,,,ttuwra,001,fr,0,2022-04-26_11h01.58.172,Continuous,2022.1.1,37.437030914475784,
17,0,17,0,0,0,0,0,,,,,0.16666666666666666,516.0198266999942,None,1.2779795652081212,both,8000.0,15.0,0.001020868972334765,0,56,"['frequency', 'time']",0.012721466657239944,None,None,517.0488860999903,None,0.23017236666055396,1.5081519318686751,517.2662529999943,None,,510.6585553999903,None,,,,,,ttuwra,001,fr,0,2022-04-26_11h01.58.172,Continuous,2022.1.1,37.437030914475784,
17,0,17,0,1,0,1,0,,,,,,,,1.2779795652081212,both,,,,1,56,"['frequency', 'time']",0.015402833319967613,None,['space'],518.5439883999934,518.5439883999934,0.21135963332199026,1.4893391985301114,518.7606115999952,518.5439883999934,[-1.026709400000982],,,,,,,,ttuwra,001,fr,0,2022-04-26_11h01.58.172,Continuous,2022.1.1,37.437030914475784,
17,0,17,0,2,0,2,0,,,,,,,,1.2779795652081212,both,6349.0,13.516955921090116,0.0006233778557858556,0,57,"['frequency', 'time']",0.00011076666123699397,0.1907232666562777,None,520.0430661999999,520.0430661999999,0.1907232666562777,1.4687028318643989,520.2521907999908,520.0430661999999,,,,,,,,,ttuwra,001,fr,0,2022-04-26_11h01.58.172,Continuous,2022.1.1,37.437030914475784,
17,0,17,0,3,0,3,0,,,,,,,,1.2779795652081212,both,5656.0,14.98599722862633,0.0007217544465062738,0,58,"['frequency', 'time']",0.01452753334888257,None,None,521.5326571999904,521.5326571999904,0.23481463333882857,1.5127941985469497,521.7608830999961,521.5326571999904,,,,,,,,,ttuwra,001,fr,0,2022-04-26_11h01.58.172,Continuous,2022.1.1,37.437030914475784,
17,0,17,0,4,0,4,0,,,,,,,,1.2779795652081212,both,5039.0,15.35205469168695,0.000886062339873114,0,59,"['frequency', 'time']",0.01603393333789427,None,None,523.0415624000016,523.0415624000016,0.21122683334397152,1.4892063985520927,523.2539532999945,523.0415624000016,,,,,,,,,ttuwra,001,fr,0,2022-04-26_11h01.58.172,Continuous,2022.1.1,37.437030914475784,
17,0,17,0,5,0,5,0,,,,,,,,1.2779795652081212,both,4489.0,17.573513205624003,0.0008892671547070949,0,60,"['frequency', 'time']",0.0004231666534906253,None,['space'],524.5423891999963,524.5423891999963,0.1953635666577611,1.4733431318658823,524.7526358000032,524.5423891999963,[-0.9439438999979757],,,,,,,,ttuwra,001,fr,0,2022-04-26_11h01.58.172,Continuous,2022.1.1,37.437030914475784,
17,0,17,0,6,0,6,0,,,,,,,,1.2779795652081212,both,3999.0,18.034960190947075,0.0006693097969517005,0,61,"['frequency', 'time']",0.0016266666789306328,None,None,526.0440137999976,526.0440137999976,0.19941186667711008,1.4773914318852313,526.2529366999952,526.0440137999976,,,,,,,,,ttuwra,001,fr,0,2022-04-26_11h01.58.172,Continuous,2022.1.1,37.437030914475784,
17,0,17,0,7,0,7,0,,,,,,,,1.2779795652081212,both,3563.0,16.502101406960346,0.0005098629469606851,0,62,"['frequency', 'time']",0.0018874666566262022,None,['space'],527.5456855999946,527.5456855999946,0.20060646666388493,1.478586031872006,527.7534564999951,527.5456855999946,[-0.9397625999990851],,,,,,,,ttuwra,001,fr,0,2022-04-26_11h01.58.172,Continuous,2022.1.1,37.437030914475784,
17,0,17,0,8,0,8,0,,,,,,,,1.2779795652081212,both,3174.0,18.127402259628642,0.000559735723627427,0,63,"['frequency', 'time']",0.014815633345278911,None,None,529.0407306999987,529.0407306999987,0.23395473333948757,1.5119342985476087,529.2680282999936,529.0407306999987,,,,,,,,,ttuwra,001,fr,0,2022-04-26_11h01.58.172,Continuous,2022.1.1,37.437030914475784,
18,0,18,0,0,0,0,0,,,,,0.5833333333333334,537.1317783999984,None,2.5481446437255455,both,2000.0,21.65200322236381,0.0009048366130781696,0,64,"['frequency', 'time']",0.009797066653845832,None,None,538.1584651000012,None,0.20967736665625125,2.7578220103817968,538.3797175999935,None,,530.5488439000037,None,,,,,,ttuwra,001,fr,0,2022-04-26_11h01.58.172,Continuous,2022.1.1,37.437030914475784,
18,0,18,0,1,0,1,0,,,,,,,,2.5481446437255455,both,1335.0,21.029760168905835,0.0005899437701779334,0,65,"['frequency', 'time']",0.014610133352107368,None,['space'],540.9315705999907,540.9315705999907,0.23331563334795646,2.781460277073502,541.162680399997,540.9315705999907,[-2.2134043000114616],,,,,,,,ttuwra,001,fr,0,2022-04-26_11h01.58.172,Continuous,2022.1.1,37.437030914475784,
18,0,18,0,2,0,2,0,,,,,,,,2.5481446437255455,both,891.0,19.92107253882232,0.0004058400070462327,0,66,"['frequency', 'time']",0.0013510666758520529,0.19919686666980851,['space'],543.7125152999943,543.7125152999943,0.19919686666980851,2.747341510395354,543.9180672999937,543.7125152999943,[-2.355035799992038],,,,,,,,ttuwra,001,fr,0,2022-04-26_11h01.58.172,Continuous,2022.1.1,37.437030914475784,
18,0,18,0,3,0,3,0,,,,,,,,2.5481446437255455,both,595.0,20.546084022439196,0.0006029896094368576,0,67,"['frequency', 'time']",0.01484533333859872,None,None,546.472191599998,546.472191599998,0.23339103334001265,2.781535677065558,546.7000260999921,546.472191599998,,,,,,,,,ttuwra,001,fr,0,2022-04-26_11h01.58.172,Continuous,2022.1.1,37.437030914475784,
18,0,18,0,4,0,4,0,,,,,,,,2.5481446437255455,both,397.0,20.371223250490957,0.0008070996224098598,0,68,"['frequency', 'time']",0.0006563666684087366,None,['space'],549.2518971999962,549.2518971999962,0.20089366666798014,2.7490383103935256,549.4679502999934,549.2518971999962,[-2.2297723999945447],,,,,,,,ttuwra,001,fr,0,2022-04-26_11h01.58.172,Continuous,2022.1.1,37.437030914475784,
18,0,18,0,5,0,5,0,,,,,,,,2.5481446437255455,both,265.0,20.135171935285637,0.0015396914243281576,0,69,"['frequency', 'time']",0.00041016667091753334,None,['space'],552.022080099996,552.022080099996,0.19824186667392496,2.7463865103994705,552.2332789999928,552.022080099996,[-2.296279100002721],,,,,,,,ttuwra,001,fr,0,2022-04-26_11h01.58.172,Continuous,2022.1.1,37.437030914475784,
18,0,18,0,6,0,6,0,,,,,,,,2.5481446437255455,both,177.0,21.0,0.00391817490806909,0,70,"['frequency', 'time']",0.015577433339785784,None,['space'],554.7916180000029,554.7916180000029,0.20728373333986383,2.7554283770654093,555.0014332999999,554.7916180000029,[-2.3621139000024414],,,,,,,,ttuwra,001,fr,0,2022-04-26_11h01.58.172,Continuous,2022.1.1,37.437030914475784,
18,0,18,0,7,0,7,0,,,,,,,,2.5481446437255455,both,,,,1,70,"['frequency', 'time']",0.01651213334116619,None,['space'],557.5608400999918,557.5608400999918,0.21116473333677277,2.7593093770623183,557.773369699993,557.5608400999918,[-2.3146105999912834],,,,,,,,ttuwra,001,fr,0,2022-04-26_11h01.58.172,Continuous,2022.1.1,37.437030914475784,
19,0,19,0,0,0,0,0,,,,,,567.8201446000021,None,1.856677567327691,none,796.0,24.989659927098625,0.000684710238494598,0,53,"['frequency', 'time']",0.01296346666640602,None,None,568.8434446000028,None,0.21731206667027436,2.0739896339979653,569.0560199000029,None,,560.3303393999959,None,"[0.16666666666666666, 0.16666666666666666, 0.16666666666666666, 0.5833333333333334, 0.16666666666666666, 0.5833333333333334, 0.3333333333333333, 0.16666666666666666, 0.16666666666666666, 0.3333333333333333, 0.5833333333333334, 0.3333333333333333, 0.16666666666666666, 0.16666666666666666, 0.5833333333333334]",,,,,ttuwra,001,fr,0,2022-04-26_11h01.58.172,Continuous,2022.1.1,37.437030914475784,
19,0,19,0,1,0,1,0,,,,,,,,2.582023713575916,none,334.0,19.931522801095376,0.000929528547232127,0,54,"['frequency', 'time']",0.01666633335116785,None,['space'],570.924854500001,570.924854500001,0.21375793335027993,2.795781646926196,571.1333383000019,570.924854500001,[-1.5987510999984806],,,,,,,,ttuwra,001,fr,0,2022-04-26_11h01.58.172,Continuous,2022.1.1,37.437030914475784,
19,0,19,0,2,0,2,0,,,,,,,,2.1748804146139182,none,473.0,22.900098529616844,0.001016907162411151,0,55,"['frequency', 'time']",0.0002868666633730754,0.19513886666391045,"['space', 'space']",573.727549999996,573.727549999996,0.19513886666391045,2.3700192812778287,573.9352389999985,573.727549999996,"[-2.3207971999945585, -0.20977059999131598]",,,,,,,,ttuwra,001,fr,0,2022-04-26_11h01.58.172,Continuous,2022.1.1,37.437030914475784,
19,0,19,0,3,0,3,0,,,,,,,,2.492986320392592,none,421.0,20.538606396758667,0.000803100560107381,0,56,"['frequency', 'time']",0.014518333337036893,None,None,576.1145629999955,576.1145629999955,0.2374004333250923,2.7303867537176845,576.3441168999998,576.1145629999955,,,,,,,,,ttuwra,001,fr,0,2022-04-26_11h01.58.172,Continuous,2022.1.1,37.437030914475784,
19,0,19,0,4,0,4,0,,,,,,,,1.7817931648824683,none,,,,1,56,"['frequency', 'time']",0.01443363331782166,None,['space'],578.840526400003,578.840526400003,0.20303213331499137,1.9848252981974597,579.0498975999944,578.840526400003,[-2.346568400011165],,,,,,,,ttuwra,001,fr,0,2022-04-26_11h01.58.172,Continuous,2022.1.1,37.437030914475784,
19,0,19,0,5,0,5,0,,,,,,,,2.1687681725127357,none,177.0,25.0,0.00620988873867065,0,57,"['frequency', 'time']",0.01499223335122224,None,None,580.8419365000009,580.8419365000009,0.2327242333558388,2.4014924058685745,581.0697517999943,580.8419365000009,,,,,,,,,ttuwra,001,fr,0,2022-04-26_11h01.58.172,Continuous,2022.1.1,37.437030914475784,
19,0,19,0,6,0,6,0,,,,,,,,1.8214155783655055,none,223.0,19.371322591906676,0.0020499345031032845,0,58,"['frequency', 'time']",0.013876633340260014,None,['space'],583.239187500003,583.239187500003,0.23223033334943466,2.0536459117149404,583.4610703999933,583.239187500003,[-1.880915100002312],,,,,,,,ttuwra,001,fr,0,2022-04-26_11h01.58.172,Continuous,2022.1.1,37.437030914475784,
19,0,19,0,7,0,7,0,,,,,,,,1.9490265761579346,none,141.0,21.845210441241417,0.007176195381969731,0,59,"['frequency', 'time']",0.013701333344215527,None,None,585.2930760000017,585.2930760000017,0.23487563333765138,2.183902209495586,585.5261944999947,585.2930760000017,,,,,,,,,ttuwra,001,fr,0,2022-04-26_11h01.58.172,Continuous,2022.1.1,37.437030914475784,
19,0,19,0,8,0,8,0,,,,,,,,2.8808876712447766,none,158.0,24.46317251999794,0.007170376621458716,0,60,"['frequency', 'time']",0.016235033341217786,None,['space'],587.4759111000021,587.4759111000021,0.240814433345804,3.1217021045905806,587.6963493999938,587.4759111000021,[-1.7493051000055857],,,,,,,,ttuwra,001,fr,0,2022-04-26_11h01.58.172,Continuous,2022.1.1,37.437030914475784,
19,0,19,0,9,0,9,0,,,,,,,,1.4148408274360234,none,531.0,19.912878976977236,0.0006594392878638343,0,61,"['frequency', 'time']",0.014211033325409517,None,['space'],590.5874475000019,590.5874475000019,0.23017253332363907,1.6450133607596624,590.8125756999943,590.5874475000019,[-2.6692117000056896],,,,,,,,ttuwra,001,fr,0,2022-04-26_11h01.58.172,Continuous,2022.1.1,37.437030914475784,
