sweeps.thisRepN,sweeps.thisTrialN,sweeps.thisN,sweeps.thisIndex,trials.thisRepN,trials.thisTrialN,trials.thisN,trials.thisIndex,instructions.started,instructions.stopped,blank_text.started,blank_text.stopped,,text.started,text.stopped,Delay,Prediction,Frequency,Volume,Psychopy_level,isCatchTrial,len(y),finished_audiograms,probe.started,probe.stopped,feedback.keys,feedback.started,feedback.stopped,ISI.started,ISI.stopped,text_2.started,text_2.stopped,feedback.rt,break_txt.started,break_txt.stopped,Intervals,Audiogram_both,Audiogram_none,Audiogram_frequency,Audiogram_time,participant,session,language (english or french),Resume previous experiment,date,expName,psychopyVersion,frameRate,
0,0,0,0,0,0,0,0,26.935792500007665,None,69.80248519999441,None,0.3333333333333333,72.63924560000305,None,1.2212619900239012,frequency,1416.0,1.426709289116372,5.9383048294134287e-05,0,28,[],0.007124666648451239,0.1978445666609332,None,73.68482249998488,None,0.1978445666609332,1.4191065566848344,73.88708489999408,None,,,,,,,,,regvnx,001,fr,0,2022-04-28_15h23.14.645,Continuous,2022.1.1,None,
0,0,0,0,1,0,1,0,,,,,,,,1.0432673145834954,frequency,1124.0,3.9347524158992284,7.745454496245551e-05,0,29,[],0.011925966682611033,None,None,75.13693320000311,75.13693320000311,0.2174138666887302,1.2606811812722256,75.35046529999818,75.13693320000311,,,,,,,,,regvnx,001,fr,0,2022-04-28_15h23.14.645,Continuous,2022.1.1,None,
0,0,0,0,2,0,2,0,,,,,,,,1.4440001344208366,frequency,892.0,7.3149873441251,9.513753333228244e-05,0,30,[],0.01224486663704738,None,None,76.415763099998,76.415763099998,0.21065596662811004,1.6546561010489467,76.62955220000003,76.415763099998,,,,,,,,,regvnx,001,fr,0,2022-04-28_15h23.14.645,Continuous,2022.1.1,None,
0,0,0,0,3,0,3,0,,,,,,,,2.11602633063557,frequency,708.0,5.559482310501133,8.406575700890462e-05,0,31,[],0.0120078666950576,None,['space'],78.0981741999858,78.0981741999858,0.21808716669329442,2.3341134973288646,78.32147180000902,78.0981741999858,[-1.1660416000231635],,,,,,,,regvnx,001,fr,0,2022-04-28_15h23.14.645,Continuous,2022.1.1,None,
0,0,0,0,4,0,4,0,,,,,,,,1.9429259409595618,frequency,562.0,8.713458362433471,0.00016844934465509975,0,32,[],0.0037723666755482554,None,None,80.46345899999142,80.46345899999142,0.20323916667257436,2.146165107632136,80.6806346999947,80.46345899999142,,,,,,,,,regvnx,001,fr,0,2022-04-28_15h23.14.645,Continuous,2022.1.1,None,
0,0,0,0,5,0,5,0,,,,,,,,1.076230077571153,frequency,446.0,9.847917107014965,0.00023058057538679927,0,33,[],0.011489966651424766,None,['space'],82.65346339999815,82.65346339999815,0.2156111666408833,1.2918412442120364,82.86550879999413,82.65346339999815,[-1.4498191000020597],,,,,,,,regvnx,001,fr,0,2022-04-28_15h23.14.645,Continuous,2022.1.1,None,
0,0,0,0,6,0,6,0,,,,,,,,2.683712103308113,frequency,354.0,9.0,0.00024941670488659655,0,34,[],0.011981766641838476,None,['space'],83.96757169999182,83.96757169999182,0.21223526663379744,2.8959473699419105,84.18156289999024,83.96757169999182,[-0.8751053999876603],,,,,,,,regvnx,001,fr,0,2022-04-28_15h23.14.645,Continuous,2022.1.1,None,
0,0,0,0,7,0,7,0,,,,,,,,2.5603741399903486,frequency,281.0,10.743074897206307,0.0004638004949128652,0,35,[],0.011416866647778079,None,"['space', 'space']",86.89390090000234,86.89390090000234,0.22942536664777435,2.789799506638123,87.11410209999303,86.89390090000234,"[-2.377329800016014, -0.34555870000622235]",,,,,,,,regvnx,001,fr,0,2022-04-28_15h23.14.645,Continuous,2022.1.1,None,
0,0,0,0,8,0,8,0,,,,,,,,1.5613465513872307,frequency,,,,1,35,[],0.012118666665628552,None,['space'],89.69719909998821,89.69719909998821,0.21817776665557176,1.7795243180428024,89.91233230000944,89.69719909998821,[-1.8533222999831196],,,,,,,,regvnx,001,fr,0,2022-04-28_15h23.14.645,Continuous,2022.1.1,None,
0,0,0,0,9,0,9,0,,,,,,,,1.1393392028261482,frequency,177.0,8.607844559263247,0.0009407539425233385,0,36,[],0.01322426670230925,None,None,91.50055500000599,91.50055500000599,0.21855426669935696,1.3578934695255052,91.71156299998984,91.50055500000599,,,,,,,,,regvnx,001,fr,0,2022-04-28_15h23.14.645,Continuous,2022.1.1,None,
0,0,0,0,10,0,10,0,,,,,,,,1.1109177250018356,frequency,140.0,9.02772240281896,0.001665836526154816,0,37,[],0.004880866646999493,0.197384366649203,['space'],92.88130370000727,92.88130370000727,0.197384366649203,1.3083020916510386,93.0928750000021,92.88130370000727,[-0.684317999985069],,,,,,,,regvnx,001,fr,0,2022-04-28_15h23.14.645,Continuous,2022.1.1,None,
1,0,1,0,0,0,0,0,,,,,,106.66262709998409,None,1.5953575886886462,none,354.0,9.0,0.00024941670488659655,0,28,[],0.013118766655679792,None,None,107.69502310000826,None,0.21879856663872488,1.814156155327371,107.90835019998485,None,,94.23221839999314,None,"[0.16666666666666666, 0.3333333333333333, 0.3333333333333333, 0.5833333333333334, 0.16666666666666666, 0.16666666666666666, 0.16666666666666666, 0.5833333333333334, 0.16666666666666666, 0.3333333333333333, 0.16666666666666666, 0.5833333333333334, 0.16666666666666666, 0.5833333333333334, 0.16666666666666666]",,,,,regvnx,001,fr,0,2022-04-28_15h23.14.645,Continuous,2022.1.1,None,
1,0,1,0,1,0,1,0,,,,,,,,2.2374651187459738,none,1263.0,6.9161145294741075,0.00012014249425722703,0,29,[],0.004605266673024744,0.19747826669481583,['space'],109.53181620000396,109.53181620000396,0.19747826669481583,2.4349433854407896,109.74355489999289,109.53181620000396,[-1.0154572000028566],,,,,,,,regvnx,001,fr,0,2022-04-28_15h23.14.645,Continuous,2022.1.1,None,
1,0,1,0,2,0,2,0,,,,,,,,2.721497803725237,none,446.0,9.448739783325129,0.0002202235972693005,0,30,[],0.011474866652861238,None,['space'],112.00719919998664,112.00719919998664,0.21225896666874178,2.9337567703939786,112.22309620000306,112.00719919998664,[-0.9310496000107378],,,,,,,,regvnx,001,fr,0,2022-04-28_15h23.14.645,Continuous,2022.1.1,None,
1,0,1,0,3,0,3,0,,,,,,,,1.690357461653632,none,,,,1,30,[],0.011802366701886058,None,['space'],114.97155630000634,114.97155630000634,0.21700116668944247,1.9073586283430746,115.19136880000588,114.97155630000634,[-2.391331699996954],,,,,,,,regvnx,001,fr,0,2022-04-28_15h23.14.645,Continuous,2022.1.1,None,
1,0,1,0,4,0,4,0,,,,,,,,2.0936975757187986,none,187.0,8.672842725374963,0.0008489695681961482,0,31,[],0.012762866652337834,None,None,116.89910099998815,116.89910099998815,0.2225138666399289,2.3162114423587274,117.11675729998387,116.89910099998815,,,,,,,,,regvnx,001,fr,0,2022-04-28_15h23.14.645,Continuous,2022.1.1,None,
1,0,1,0,5,0,5,0,,,,,,,,2.609296638532271,none,315.0,10.517117959943894,0.00033099840599908314,0,32,[],0.011494966660393402,None,['space'],119.23090749999392,119.23090749999392,0.2153759666834958,2.824672605215767,119.43877899998915,119.23090749999392,[-1.866751599998679],,,,,,,,regvnx,001,fr,0,2022-04-28_15h23.14.645,Continuous,2022.1.1,None,
1,0,1,0,6,0,6,0,,,,,,,,2.378733599424848,none,1418.0,5.722755305995457,9.728292359297821e-05,0,33,[],0.01009516665362753,None,['space'],122.08015970000997,122.08015970000997,0.21531926665920764,2.5940528660840556,122.29977189999772,122.08015970000997,[-2.348269599984633],,,,,,,,regvnx,001,fr,0,2022-04-28_15h23.14.645,Continuous,2022.1.1,None,
1,0,1,0,7,0,7,0,,,,,,,,2.683155485502067,none,843.0,2.5115948714054914,5.286492143567186e-05,0,34,[],0.007988966652192175,None,None,124.69483940000646,124.69483940000646,0.2041797666461207,2.887335252148188,124.90920379999443,124.69483940000646,,,,,,,,,regvnx,001,fr,0,2022-04-28_15h23.14.645,Continuous,2022.1.1,None,
1,0,1,0,8,0,8,0,,,,,,,,2.6144867014160873,none,167.0,8.4308094169398,0.001017907812089071,0,35,[],0.011273966636508703,None,None,127.62169219998759,127.62169219998759,0.21558876664494164,2.830075468061029,127.83755840000231,127.62169219998759,,,,,,,,,regvnx,001,fr,0,2022-04-28_15h23.14.645,Continuous,2022.1.1,None,
1,0,1,0,9,0,9,0,,,,,,,,1.8659891159376625,none,210.0,9.0,0.0006929003500663659,0,36,[],0.011435566644649953,None,None,130.47115110000595,130.47115110000595,0.21553466664045118,2.0815237825781137,130.68200420000358,130.47115110000595,,,,,,,,,regvnx,001,fr,0,2022-04-28_15h23.14.645,Continuous,2022.1.1,None,
1,0,1,0,10,0,10,0,,,,,,,,1.710606229889339,none,751.0,3.4209894843681385,6.019124487570755e-05,0,37,[],0.0053740666480734944,0.1998546666582115,['space'],132.57140919999802,132.57140919999802,0.1998546666582115,1.9104608965475505,132.78451880000648,132.57140919999802,[-1.6875751999905333],,,,,,,,regvnx,001,fr,0,2022-04-28_15h23.14.645,Continuous,2022.1.1,None,
1,0,1,0,11,0,11,0,,,,,,,,1.0656950371425025,none,149.0,9.0,0.0014347043165385126,0,38,[],0.011078266659751534,None,['space'],134.51441549998708,134.51441549998708,0.22306396666681394,1.2887590038093164,134.7362673000025,134.51441549998708,[-0.07902830000966787],,,,,,,,regvnx,001,fr,0,2022-04-28_15h23.14.645,Continuous,2022.1.1,None,
2,0,2,0,0,0,0,0,,,,,0.16666666666666666,154.16482320000068,None,1.3014455941633012,frequency,8000.0,4.0,0.0002877199686685786,0,38,[],0.013012966635869816,None,None,155.20378169999458,None,0.22523256664862856,1.5266781608119298,155.4180572000041,None,,135.8218615000078,None,,,,,,regvnx,001,fr,0,2022-04-28_15h23.14.645,Continuous,2022.1.1,None,
2,0,2,0,1,0,1,0,,,,,,,,2.4767984231787636,frequency,7127.0,-1.6886349810808916,0.0001276773122889914,0,39,[],0.010759866650914773,None,['space'],156.73770130000776,156.73770130000776,0.2098210666445084,2.686619489823272,156.94835580000654,156.73770130000776,[-0.8936741999932565],,,,,,,,regvnx,001,fr,0,2022-04-28_15h23.14.645,Continuous,2022.1.1,None,
2,0,2,0,2,0,2,0,,,,,,,,1.1241352623700847,frequency,6349.0,1.2371254170485049,0.00015162117069908812,0,40,[],0.0037520666664931923,None,['space'],159.45311780000338,159.45311780000338,0.1951599666790571,1.3192952290491418,159.6639496999851,159.45311780000338,[-2.2338908999809064],,,,,,,,regvnx,001,fr,0,2022-04-28_15h23.14.645,Continuous,2022.1.1,None,
2,0,2,0,3,0,3,0,,,,,,,,1.7123481369755857,frequency,5656.0,2.75496724044094,0.00017653790510461582,0,41,[],0.005236466648057103,0.20057606665068306,None,160.81709070000215,160.81709070000215,0.20057606665068306,1.9129242036262688,161.03778990000137,160.81709070000215,,,,,,,,,regvnx,001,fr,0,2022-04-28_15h23.14.645,Continuous,2022.1.1,None,
2,0,2,0,4,0,4,0,,,,,,,,2.113043995687864,frequency,,,,1,41,[],0.011134366650367156,None,None,162.76647949998733,162.76647949998733,0.2104763666575309,2.323520362345395,162.9761332999915,162.76647949998733,,,,,,,,,regvnx,001,fr,0,2022-04-28_15h23.14.645,Continuous,2022.1.1,None,
2,0,2,0,5,0,5,0,,,,,,,,2.971085020805538,frequency,4489.0,4.1316029251609905,0.00018920679875459115,0,42,[],0.012198466662084684,None,None,165.119853399985,165.119853399985,0.2155750666570384,3.1866600874625766,165.32282279999345,165.119853399985,,,,,,,,,regvnx,001,fr,0,2022-04-28_15h23.14.645,Continuous,2022.1.1,None,
2,0,2,0,6,0,6,0,,,,,,,,2.6865689582067,frequency,3999.0,8.384717578936048,0.00022035101299773733,0,43,[],0.009065966674825177,None,"['space', 'space']",168.32333149999613,168.32333149999613,0.20423486668732949,2.8908038248940295,168.53447869999218,168.32333149999613,"[-2.7191625000268687, -0.8149871000205167]",,,,,,,,regvnx,001,fr,0,2022-04-28_15h23.14.645,Continuous,2022.1.1,None,
2,0,2,0,7,0,7,0,,,,,,,,2.98268560777597,frequency,3563.0,9.716185281490272,0.00023343052433484919,0,44,[],0.010762766702100635,None,"['space', 'space']",171.2530085000035,171.2530085000035,0.21557846668292768,3.1982640744588977,171.4640081000107,171.2530085000035,"[-2.3850523000000976, -0.9285530000051949]",,,,,,,,regvnx,001,fr,0,2022-04-28_15h23.14.645,Continuous,2022.1.1,None,
2,0,2,0,8,0,8,0,,,,,,,,1.7493788070637968,frequency,3174.0,6.150626157798108,0.00014097568723248012,0,45,[],0.010434966650791466,None,['space'],174.47821949998615,174.47821949998615,0.21218946666340344,1.9615682737272002,174.68591719999677,174.47821949998615,[-2.714262499997858],,,,,,,,regvnx,001,fr,0,2022-04-28_15h23.14.645,Continuous,2022.1.1,None,
3,0,3,0,0,0,0,0,,,,,0.3333333333333333,177.93831299999147,None,1.702230211464155,both,1416.0,1.9349636167263806,6.29615199474663e-05,0,28,[],0.01287906666402705,None,None,178.95934289999423,None,0.22076446664868854,1.9229946781128435,179.17807520000497,None,,176.46468649999588,None,,,,,,regvnx,001,fr,0,2022-04-28_15h23.14.645,Continuous,2022.1.1,None,
3,0,3,0,1,0,1,0,,,,,,,,1.702230211464155,both,1124.0,3.3575375364176043,7.247465603609803e-05,0,29,[],0.008996266667963937,None,None,180.9029817999981,180.9029817999981,0.2047672666667495,1.9069974781309045,181.11155699999654,180.9029817999981,,,,,,,,,regvnx,001,fr,0,2022-04-28_15h23.14.645,Continuous,2022.1.1,None,
3,0,3,0,2,0,2,0,,,,,,,,1.702230211464155,both,892.0,3.821079251668789,6.362920286163423e-05,0,30,[],0.0031993666489142925,None,None,182.845736999996,182.845736999996,0.20375976664945483,1.9059899781136098,183.06384270000854,182.845736999996,,,,,,,,,regvnx,001,fr,0,2022-04-28_15h23.14.645,Continuous,2022.1.1,None,
3,0,3,0,3,0,3,0,,,,,,,,1.702230211464155,both,708.0,8.417857836240263,0.00011682556886129854,0,31,[],0.0031682666449341923,None,None,184.79758059998858,184.79758059998858,0.20014056665240787,1.9023707781165629,185.01556569998502,184.79758059998858,,,,,,,,,regvnx,001,fr,0,2022-04-28_15h23.14.645,Continuous,2022.1.1,None,
3,0,3,0,4,0,4,0,,,,,,,,1.702230211464155,both,562.0,6.732438440408109,0.00013409677386726898,0,32,[],0.008216966671170667,None,['space'],186.74231209998834,186.74231209998834,0.21196536667412147,1.9141955781382765,186.96188660000917,186.74231209998834,[-1.3940474000119139],,,,,,,,regvnx,001,fr,0,2022-04-28_15h23.14.645,Continuous,2022.1.1,None,
3,0,3,0,5,0,5,0,,,,,,,,1.702230211464155,both,446.0,9.868086677300646,0.00023111663043971943,0,33,[],0.010321666661184281,None,['space'],188.6836525000108,188.6836525000108,0.2139462666818872,1.9161764781460422,188.89866420000908,188.6836525000108,[-1.399930800020229],,,,,,,,regvnx,001,fr,0,2022-04-28_15h23.14.645,Continuous,2022.1.1,None,
3,0,3,0,6,0,6,0,,,,,,,,1.702230211464155,both,354.0,9.0,0.00024941670488659655,0,34,[],0.010306366661097854,None,['space'],190.62701719999313,190.62701719999313,0.22226756665622815,1.9244977781203831,190.84050620000926,190.62701719999313,[-1.566714000015054],,,,,,,,regvnx,001,fr,0,2022-04-28_15h23.14.645,Continuous,2022.1.1,None,
3,0,3,0,7,0,7,0,,,,,,,,1.702230211464155,both,281.0,13.149744426440758,0.0006118777826348558,0,35,[],0.009420266665983945,None,['space'],192.56512159999693,192.56512159999693,0.2075278666743543,1.9097580781385093,192.77191770001082,192.56512159999693,[-1.5524531000119168],,,,,,,,regvnx,001,fr,0,2022-04-28_15h23.14.645,Continuous,2022.1.1,None,
3,0,3,0,8,0,8,0,,,,,,,,1.702230211464155,both,223.0,9.26884235397972,0.0006406428350456213,0,36,[],0.0058234666648786515,None,['space'],194.5025931999844,194.5025931999844,0.20752116668154486,1.9097513781456998,194.72653990000254,194.5025931999844,[-1.5064664999954402],,,,,,,,regvnx,001,fr,0,2022-04-28_15h23.14.645,Continuous,2022.1.1,None,
3,0,3,0,9,0,9,0,,,,,,,,1.702230211464155,both,177.0,8.48910752184408,0.00092798123685672,0,37,[],0.00435246666893363,0.1975750666751992,['space'],196.45662509999238,196.45662509999238,0.1975750666751992,1.8998052781393542,196.6725146000099,196.45662509999238,[-1.4924459000176284],,,,,,,,regvnx,001,fr,0,2022-04-28_15h23.14.645,Continuous,2022.1.1,None,
3,0,3,0,10,0,10,0,,,,,,,,1.702230211464155,both,140.0,9.114785726161461,0.0016826180624089342,0,38,[],0.009638466639444232,None,['space'],198.39887599999201,198.39887599999201,0.22217056664521806,1.924400778109373,198.6210349999892,198.39887599999201,[-1.4661021999781951],,,,,,,,regvnx,001,fr,0,2022-04-28_15h23.14.645,Continuous,2022.1.1,None,
3,0,3,0,11,0,11,0,,,,,,,,1.702230211464155,both,,,,1,38,[],0.0043910666718147695,0.19749696666258387,['space'],200.34434650000185,200.34434650000185,0.19749696666258387,1.8997271781267389,200.55579799998668,200.34434650000185,[-1.6369690999854356],,,,,,,,regvnx,001,fr,0,2022-04-28_15h23.14.645,Continuous,2022.1.1,None,
4,0,4,0,0,0,0,0,,,,,,232.97585809999146,None,2.0852795358088474,time,,,,1,27,[],0.013071566703729331,None,None,234.0212087999971,None,0.22730656669591554,2.312586102504763,234.2306752000004,None,,202.2819373999955,None,"[0.5833333333333334, 0.5833333333333334, 0.3333333333333333, 0.16666666666666666, 0.5833333333333334, 0.3333333333333333, 0.5833333333333334, 0.3333333333333333, 0.3333333333333333, 0.5833333333333334, 0.3333333333333333, 0.5833333333333334, 0.3333333333333333, 0.5833333333333334, 0.5833333333333334]",,,,,regvnx,001,fr,0,2022-04-28_15h23.14.645,Continuous,2022.1.1,None,
4,0,4,0,1,0,1,0,,,,,,,,2.0852795358088474,time,149.0,9.0,0.0014347043165385126,0,28,[],0.011254666664171964,None,['space'],236.3336416000093,236.3336416000093,0.2135537666908931,2.2988333024997405,236.55088429999887,236.3336416000093,[-0.9376951000012923],,,,,,,,regvnx,001,fr,0,2022-04-28_15h23.14.645,Continuous,2022.1.1,None,
4,0,4,0,2,0,2,0,,,,,,,,2.0852795358088474,time,2830.0,9.309059383739607,0.00019096444043229308,0,29,[],0.005634366651065648,None,['space'],238.66645099999732,238.66645099999732,0.2166700666421093,2.3019496024509567,238.885128599999,238.66645099999732,[-1.86246969999047],,,,,,,,regvnx,001,fr,0,2022-04-28_15h23.14.645,Continuous,2022.1.1,None,
4,0,4,0,3,0,3,0,,,,,,,,2.0852795358088474,time,354.0,9.0,0.00024941670488659655,0,30,[],0.00971296665375121,None,['space'],240.9971067000006,240.9971067000006,0.2180154666712042,2.3032950024800516,241.21486919999006,240.9971067000006,[-1.8899237000150606],,,,,,,,regvnx,001,fr,0,2022-04-28_15h23.14.645,Continuous,2022.1.1,None,
4,0,4,0,4,0,4,0,,,,,,,,2.0852795358088474,time,530.0,8.085584025210304,0.00016936591671177137,0,31,[],0.0008843666582833976,None,['space'],243.32649469998432,243.32649469998432,0.19815136666875333,2.2834309024776007,243.53974290000042,243.32649469998432,[-1.915402200014796],,,,,,,,regvnx,001,fr,0,2022-04-28_15h23.14.645,Continuous,2022.1.1,None,
4,0,4,0,5,0,5,0,,,,,,,,2.0852795358088474,time,668.0,8.277848659819304,0.00012405490574504064,0,32,[],0.007979966670973226,None,['space'],245.65562139998656,245.65562139998656,0.20886786666233093,2.2941474024711783,245.87149809999391,245.65562139998656,[-2.035281800024677],,,,,,,,regvnx,001,fr,0,2022-04-28_15h23.14.645,Continuous,2022.1.1,None,
4,0,4,0,6,0,6,0,,,,,,,,2.0852795358088474,time,223.0,9.964785863920293,0.0006940857830637434,0,33,[],0.0098389666818548,None,['space'],247.98432849999517,247.98432849999517,0.2128356666653417,2.298115202474189,248.19924170000013,247.98432849999517,[-1.9323704999987967],,,,,,,,regvnx,001,fr,0,2022-04-28_15h23.14.645,Continuous,2022.1.1,None,
4,0,4,0,7,0,7,0,,,,,,,,2.0852795358088474,time,1889.0,5.899737725804111,0.00013767053202691403,0,34,[],0.0025828666402958333,None,['space'],250.3178934000025,250.3178934000025,0.1968390666297637,2.282118602438611,250.5312769000011,250.3178934000025,[-1.86556509998627],,,,,,,,regvnx,001,fr,0,2022-04-28_15h23.14.645,Continuous,2022.1.1,None,
4,0,4,0,8,0,8,0,,,,,,,,2.0852795358088474,time,1261.0,1.7128370013370051,6.605877996341446e-05,0,35,[],0.008464466664008796,None,['space'],252.64516749998438,252.64516749998438,0.20922846664325334,2.2945080024521007,252.8620544000005,252.64516749998438,[-1.857387199997902],,,,,,,,regvnx,001,fr,0,2022-04-28_15h23.14.645,Continuous,2022.1.1,None,
4,0,4,0,9,0,9,0,,,,,,,,2.0852795358088474,time,1001.0,5.47703509514676,8.28388229567389e-05,0,36,[],0.009269166679587215,None,['space'],254.98114650000934,254.98114650000934,0.21673166667460464,2.302011202483452,255.19870199999423,254.98114650000934,[-2.0655403999844566],,,,,,,,regvnx,001,fr,0,2022-04-28_15h23.14.645,Continuous,2022.1.1,None,
5,0,5,0,0,0,0,0,,,,,0.5833333333333334,274.9063962000073,None,2.828181045481287,frequency,4002.0,8.80824948503231,0.0002317895640870362,0,46,[],0.012943966634338722,None,None,275.9294193999958,None,0.2140699666342698,3.042251012115557,276.1464830999903,None,,257.3102770000114,None,,,,,,regvnx,001,fr,0,2022-04-28_15h23.14.645,Continuous,2022.1.1,None,
5,0,5,0,1,0,1,0,,,,,,,,2.6100751057045937,frequency,2671.0,8.660246337209587,0.00020399909937053517,0,47,[],0.005268466658890247,0.19791856667143293,None,278.9912912999862,278.9912912999862,0.19791856667143293,2.8079936723760266,279.1957151000097,278.9912912999862,,,,,,,,,regvnx,001,fr,0,2022-04-28_15h23.14.645,Continuous,2022.1.1,None,
5,0,5,0,2,0,2,0,,,,,,,,1.5625261405466413,frequency,1783.0,3.6070639725578992,9.848206347572676e-05,0,48,[],0.00950566670508124,None,['space'],281.83949819998816,281.83949819998816,0.21439896669471636,1.7769251072413577,282.05280390000553,281.83949819998816,[-2.347170199995162],,,,,,,,regvnx,001,fr,0,2022-04-28_15h23.14.645,Continuous,2022.1.1,None,
5,0,5,0,3,0,3,0,,,,,,,,1.9137426855721684,frequency,1190.0,-0.6148664855912837,4.8445858361454385e-05,0,49,[],0.009424666641280055,None,['space'],283.63771829998586,283.63771829998586,0.21139796666102484,2.1251406522331933,283.856300799991,283.63771829998586,[-1.2019875000114553],,,,,,,,regvnx,001,fr,0,2022-04-28_15h23.14.645,Continuous,2022.1.1,None,
5,0,5,0,4,0,4,0,,,,,,,,2.1961403365393846,frequency,794.0,-0.4660115973746719,3.6622376700918013e-05,0,50,[],0.007678166643017903,0.19793346663936973,None,285.7957591000013,285.7957591000013,0.19793346663936973,2.3940738031787543,286.0025051999837,285.7957591000013,,,,,,,,,regvnx,001,fr,0,2022-04-28_15h23.14.645,Continuous,2022.1.1,None,
5,0,5,0,5,0,5,0,,,,,,,,2.6677628813098004,frequency,,,,1,50,[],0.008968266658484936,None,None,288.2293696999841,288.2293696999841,0.21663926666951738,2.884402147979318,288.44338589999825,288.2293696999841,,,,,,,,,regvnx,001,fr,0,2022-04-28_15h23.14.645,Continuous,2022.1.1,None,
5,0,5,0,6,0,6,0,,,,,,,,2.9817015908950695,frequency,354.0,-2.0,7.02951783824607e-05,0,51,[],0.010033766680862755,None,['space'],291.1366558999871,291.1366558999871,0.21510556669090874,3.196807157585978,291.35120199999074,291.1366558999871,[-1.2927740000013728],,,,,,,,regvnx,001,fr,0,2022-04-28_15h23.14.645,Continuous,2022.1.1,None,
5,0,5,0,7,0,7,0,,,,,,,,1.584763236638507,frequency,236.0,8.45907871453926,0.0005161680664572256,0,52,[],0.008101266663288698,None,None,294.3568951000052,294.3568951000052,0.21305406666942872,1.7978173033079357,294.5724252999935,294.3568951000052,,,,,,,,,regvnx,001,fr,0,2022-04-28_15h23.14.645,Continuous,2022.1.1,None,
5,0,5,0,8,0,8,0,,,,,,,,1.9810671689524921,frequency,158.0,0.6780887423068442,0.00046375411746267737,0,53,[],0.004365666682133451,None,['space'],296.17826570000034,296.17826570000034,0.20201416668714955,2.183081335639642,296.40050590000465,296.17826570000034,[-1.4708305999811273],,,,,,,,regvnx,001,fr,0,2022-04-28_15h23.14.645,Continuous,2022.1.1,None,
6,0,6,0,0,0,0,0,,,,,0.5833333333333334,320.1635912999918,None,2.697571221424739,frequency,4288.0,-2.3872884485920878,7.882246269886337e-05,0,54,[],0.013046666659647599,None,None,321.1842032999848,None,0.21841466665500775,2.9159858880797467,321.39576330001,None,,298.41067539999494,None,,,,,,regvnx,001,fr,0,2022-04-28_15h23.14.645,Continuous,2022.1.1,None,
6,0,6,0,1,0,1,0,,,,,,,,2.6262276298162743,frequency,2862.0,-2.5938423045250545,4.70321379226005e-05,0,55,[],0.005793566670035943,None,None,324.12136869999813,324.12136869999813,0.20068846666254103,2.8269160964788154,324.33467809998547,324.12136869999813,,,,,,,,,regvnx,001,fr,0,2022-04-28_15h23.14.645,Continuous,2022.1.1,None,
6,0,6,0,2,0,2,0,,,,,,,,2.4399960752148155,frequency,1910.0,-1.9280287845082942,5.666472017955991e-05,0,56,[],0.006343966640997678,None,None,326.9920800999971,326.9920800999971,0.20590336664463393,2.6458994418594495,327.21118290000595,326.9920800999971,,,,,,,,,regvnx,001,fr,0,2022-04-28_15h23.14.645,Continuous,2022.1.1,None,
6,0,6,0,3,0,3,0,,,,,,,,2.609897257554292,frequency,1275.0,-0.7738100716314502,4.929536053000139e-05,0,57,[],0.00758676664554514,None,None,329.676372499991,329.676372499991,0.20526806663838215,2.815165324192674,329.89186110001174,329.676372499991,,,,,,,,,regvnx,001,fr,0,2022-04-28_15h23.14.645,Continuous,2022.1.1,None,
6,0,6,0,4,0,4,0,,,,,,,,1.0881485116134575,frequency,851.0,-5.953120470881045,2.006406525688665e-05,0,58,[],0.004090066679054871,0.19872596667846665,['space'],332.5331612000009,332.5331612000009,0.19872596667846665,1.2868744782919241,332.7462502999988,332.5331612000009,[-0.7689341999939643],,,,,,,,regvnx,001,fr,0,2022-04-28_15h23.14.645,Continuous,2022.1.1,None,
6,0,6,0,5,0,5,0,,,,,,,,2.3859321305639547,frequency,568.0,-6.995688008923464,2.7188237354771225e-05,0,59,[],0.00838386663235724,None,None,333.85850919998484,333.85850919998484,0.20749696664279327,2.593429097206748,334.082822700002,333.85850919998484,,,,,,,,,regvnx,001,fr,0,2022-04-28_15h23.14.645,Continuous,2022.1.1,None,
6,0,6,0,6,0,6,0,,,,,,,,1.6051120712700344,frequency,379.0,-12.0,2.0599016504590128e-05,0,60,[],0.008836566674290225,None,['space'],336.4911460999865,336.4911460999865,0.21363866666797549,1.81875073793801,336.7066008000111,336.4911460999865,[-0.4230944000009913],,,,,,,,regvnx,001,fr,0,2022-04-28_15h23.14.645,Continuous,2022.1.1,None,
6,0,6,0,7,0,7,0,,,,,,,,2.553416579599869,frequency,253.0,10.300121587116264,0.0005378429968608639,0,61,[],0.007510466675739735,None,None,338.3354018999962,338.3354018999962,0.20923956666956656,2.7626561462694355,338.5540129999863,338.3354018999962,,,,,,,,,regvnx,001,fr,0,2022-04-28_15h23.14.645,Continuous,2022.1.1,None,
6,0,6,0,8,0,8,0,,,,,,,,2.158746330239766,frequency,169.0,2.032191145032579,0.0004780748144748928,0,62,[],0.007251866685692221,None,['space'],341.13832120000734,341.13832120000734,0.20302836666814983,2.361774696907916,341.34856529999524,341.13832120000734,[-2.4617102000047453],,,,,,,,regvnx,001,fr,0,2022-04-28_15h23.14.645,Continuous,2022.1.1,None,
6,0,6,0,9,0,9,0,,,,,,,,1.9077700813606142,frequency,,,,1,62,[],0.005861866666236892,None,['space'],343.5418096999929,343.5418096999929,0.20447006667382084,2.1122401480344353,343.7587452000007,343.5418096999929,[-0.9624345999909565],,,,,,,,regvnx,001,fr,0,2022-04-28_15h23.14.645,Continuous,2022.1.1,None,
7,0,7,0,0,0,0,0,,,,,,347.47772269998677,None,1.597222193312844,none,4238.0,3.4673966804341596,0.00014953402256580613,0,39,[],0.00828606667346321,None,None,348.50746019999497,None,0.2046258666960057,1.8018480600088498,348.72678329999326,None,,345.69563890001155,None,"[0.3333333333333333, 0.3333333333333333, 0.3333333333333333, 0.16666666666666666, 0.5833333333333334, 0.5833333333333334, 0.16666666666666666, 0.5833333333333334, 0.16666666666666666, 0.16666666666666666, 0.16666666666666666, 0.16666666666666666, 0.16666666666666666, 0.16666666666666666, 0.3333333333333333]",,,,,regvnx,001,fr,0,2022-04-28_15h23.14.645,Continuous,2022.1.1,None,
7,0,7,0,1,0,1,0,,,,,,,,2.2580225440558994,none,,,,1,39,[],0.006184266647323966,None,None,350.34851839998737,350.34851839998737,0.19905996663146652,2.457082510687366,350.5572259000037,350.34851839998737,,,,,,,,,regvnx,001,fr,0,2022-04-28_15h23.14.645,Continuous,2022.1.1,None,
7,0,7,0,2,0,2,0,,,,,,,,1.860635264253864,none,4757.0,4.919826908702429,0.00023967018798658066,0,40,[],0.009783266665181145,None,None,352.8504486999882,352.8504486999882,0.21202636667294428,2.072661630926808,353.06140109998523,352.8504486999882,,,,,,,,,regvnx,001,fr,0,2022-04-28_15h23.14.645,Continuous,2022.1.1,None,
7,0,7,0,3,0,3,0,,,,,,,,1.0423022704291405,none,7127.0,-2.2914125398484497,0.00011911730359154789,0,41,[],0.00758676664554514,None,['space'],354.9538018000021,354.9538018000021,0.2067157666606363,1.2490180370897768,355.1634522000095,354.9538018000021,[-1.6221721000038087],,,,,,,,regvnx,001,fr,0,2022-04-28_15h23.14.645,Continuous,2022.1.1,None,
7,0,7,0,4,0,4,0,,,,,,,,2.8314901852307086,none,1060.0,1.8217626754269072,5.742756780772094e-05,0,42,[],0.007660266681341454,None,['space'],356.2392111000081,356.2392111000081,0.21706486667972058,3.048555051910429,356.46085870001116,356.2392111000081,[-0.7163834999955725],,,,,,,,regvnx,001,fr,0,2022-04-28_15h23.14.645,Continuous,2022.1.1,None,
7,0,7,0,5,0,5,0,,,,,,,,2.9660658697960205,none,1682.0,3.3023203996678485,8.841675323311594e-05,0,43,[],0.004731066641397774,0.2008777666487731,None,359.30892809998477,359.30892809998477,0.2008777666487731,3.1669436364447936,359.5232878999959,359.30892809998477,,,,,,,,,regvnx,001,fr,0,2022-04-28_15h23.14.645,Continuous,2022.1.1,None,
7,0,7,0,6,0,6,0,,,,,,,,2.626157491147059,none,8000.0,2.0,0.0002285440948074376,0,44,[],0.008224966702982783,None,None,362.5203699999838,362.5203699999838,0.21154606668278575,2.837703557829845,362.7401438000088,362.5203699999838,,,,,,,,,regvnx,001,fr,0,2022-04-28_15h23.14.645,Continuous,2022.1.1,None,
7,0,7,0,7,0,7,0,,,,,,,,1.4581627972673417,none,2829.0,4.693600602143527,0.00011235492394048071,0,45,[],0.00393316667759791,None,['space'],365.3845609999844,365.3845609999844,0.20022436667932197,1.6583871639466636,365.6019270000106,365.3845609999844,[-2.515936000010697],,,,,,,,regvnx,001,fr,0,2022-04-28_15h23.14.645,Continuous,2022.1.1,None,
7,0,7,0,8,0,8,0,,,,,,,,2.8081007914123113,none,1888.0,3.6704757210647805,0.00010643803710797973,0,46,[],0.007340566662605852,None,['space'],367.0989695999888,367.0989695999888,0.20688196667470038,3.0149827580870117,367.30662680001114,367.0989695999888,[-0.47050260001560673],,,,,,,,regvnx,001,fr,0,2022-04-28_15h23.14.645,Continuous,2022.1.1,None,
8,0,8,0,0,0,0,0,,,,,,371.77735029999167,None,2.855076883407148,time,5656.0,2.546889341477676,0.0001723590428791208,0,37,[],0.01289096666732803,None,None,372.81155909999507,None,0.2295549666741863,3.084631850081334,373.0309137000004,None,,370.1511639000091,None,"[0.3333333333333333, 0.5833333333333334, 0.5833333333333334, 0.3333333333333333, 0.3333333333333333, 0.3333333333333333, 0.16666666666666666, 0.16666666666666666, 0.16666666666666666, 0.16666666666666666, 0.16666666666666666, 0.3333333333333333, 0.5833333333333334, 0.3333333333333333, 0.3333333333333333]",,,,,regvnx,001,fr,0,2022-04-28_15h23.14.645,Continuous,2022.1.1,None,
8,0,8,0,1,0,1,0,,,,,,,,2.855076883407148,time,6349.0,0.8404193230056537,0.00014485201498350223,0,38,[],0.0037426666531246156,None,None,375.91087349999,375.91087349999,0.19877986665233038,3.053856750059478,376.12676769998507,375.91087349999,,,,,,,,,regvnx,001,fr,0,2022-04-28_15h23.14.645,Continuous,2022.1.1,None,
8,0,8,0,2,0,2,0,,,,,,,,2.855076883407148,time,8000.0,1.0,0.0002036901389020564,0,39,[],0.004281766683561727,None,['space'],379.01367610000307,379.01367610000307,0.19988826668122783,3.0549651500883757,379.2319199999911,379.01367610000307,[-1.1853167999943253],,,,,,,,regvnx,001,fr,0,2022-04-28_15h23.14.645,Continuous,2022.1.1,None,
8,0,8,0,3,0,3,0,,,,,,,,2.855076883407148,time,4489.0,1.9854678015434999,0.00014778487263415204,0,40,[],0.004449166648555547,0.20223366667050868,"['space', 'space']",382.1166677000001,382.1166677000001,0.20223366667050868,3.0573105500776565,382.33054339999217,382.1166677000001,"[-2.736776900012046, -0.7373070000030566]",,,,,,,,regvnx,001,fr,0,2022-04-28_15h23.14.645,Continuous,2022.1.1,None,
8,0,8,0,4,0,4,0,,,,,,,,2.855076883407148,time,7127.0,-1.9887465074294712,0.00012334119605944855,0,41,[],0.007710766658419743,None,['space'],385.2176080000063,385.2176080000063,0.20925166667439044,3.0643285500815383,385.42543679999653,385.2176080000063,[-1.5013532000011764],,,,,,,,regvnx,001,fr,0,2022-04-28_15h23.14.645,Continuous,2022.1.1,None,
8,0,8,0,5,0,5,0,,,,,,,,2.855076883407148,time,,,,1,41,[],0.008101766637992114,None,"['space', 'space']",388.31598730001133,388.31598730001133,0.21233526663854718,3.067412150045695,388.5274611999921,388.31598730001133,"[-2.712254899990512, -0.20106900000246242]",,,,,,,,regvnx,001,fr,0,2022-04-28_15h23.14.645,Continuous,2022.1.1,None,
8,0,8,0,6,0,6,0,,,,,,,,2.855076883407148,time,1887.0,5.021466225527523,0.00012426967611695188,0,42,[],0.00907726664445363,None,['space'],391.41560519998893,391.41560519998893,0.21275466665974818,3.067831550066896,391.63476129999617,391.41560519998893,[-0.8836796999967191],,,,,,,,regvnx,001,fr,0,2022-04-28_15h23.14.645,Continuous,2022.1.1,None,
8,0,8,0,7,0,7,0,,,,,,,,2.855076883407148,time,3563.0,4.913773001285131,0.00013428794612798067,0,43,[],0.0013140666706021875,None,"['space', 'space']",394.5193849999923,394.5193849999923,0.19740126669057645,3.0524781500977243,394.7387364000024,394.5193849999923,"[-1.6989289000048302, 0.012242899974808097]",,,,,,,,regvnx,001,fr,0,2022-04-28_15h23.14.645,Continuous,2022.1.1,None,
8,0,8,0,8,0,8,0,,,,,,,,2.855076883407148,time,1259.0,0.7839873453569065,5.941354726038679e-05,0,44,[],0.007472366647562012,None,['space'],397.62601020000875,397.62601020000875,0.2110855666687712,3.066162450075919,397.8374102000089,397.62601020000875,[-0.9180934999894816],,,,,,,,regvnx,001,fr,0,2022-04-28_15h23.14.645,Continuous,2022.1.1,None,
9,0,9,0,0,0,0,0,,,,,,422.1299766000011,None,2.4219590843252936,none,881.0,4.79203770627622,7.061202448384906e-05,0,47,[],0.012817466660635546,None,None,423.1555769999977,None,0.2284460666414816,2.650405150966775,423.37180620001163,None,,400.72482370000216,None,"[0.3333333333333333, 0.3333333333333333, 0.5833333333333334, 0.3333333333333333, 0.16666666666666666, 0.3333333333333333, 0.3333333333333333, 0.5833333333333334, 0.3333333333333333, 0.16666666666666666, 0.5833333333333334, 0.16666666666666666, 0.16666666666666666, 0.3333333333333333, 0.5833333333333334]",,,,,regvnx,001,fr,0,2022-04-28_15h23.14.645,Continuous,2022.1.1,None,
9,0,9,0,1,0,1,0,,,,,,,,1.192699009178877,none,2639.0,5.0,0.00013738549212371685,0,48,[],0.002827166666975245,0.19425856668385677,None,425.81637759998557,425.81637759998557,0.19425856668385677,1.3869575758627337,426.0267075999873,425.81637759998557,,,,,,,,,regvnx,001,fr,0,2022-04-28_15h23.14.645,Continuous,2022.1.1,None,
9,0,9,0,2,0,2,0,,,,,,,,1.5188972446151092,none,785.0,3.8965808654575995,6.115772241458225e-05,0,49,[],0.004169166670180857,None,['space'],427.24682820000453,427.24682820000453,0.21241826668847352,1.7313155113035827,427.46730439999374,427.24682820000453,[-1.0027018999971915],,,,,,,,regvnx,001,fr,0,2022-04-28_15h23.14.645,Continuous,2022.1.1,None,
9,0,9,0,3,0,3,0,,,,,,,,1.7557029613653836,none,330.0,6.913956233611985,0.00020997694095927167,0,50,[],0.004051366675412282,0.20091616667923518,None,429.0155652000103,429.0155652000103,0.20091616667923518,1.9566191280446188,429.2301814999955,429.0155652000103,,,,,,,,,regvnx,001,fr,0,2022-04-28_15h23.14.645,Continuous,2022.1.1,None,
9,0,9,0,4,0,4,0,,,,,,,,1.3612442598894094,none,4981.0,5.227360466887451,0.00027644263477440297,0,51,[],0.007551366637926549,None,['space'],431.01337269999203,431.01337269999203,0.21819896664237604,1.5794432265317855,431.2346350000007,431.01337269999203,[-1.585802900022827],,,,,,,,regvnx,001,fr,0,2022-04-28_15h23.14.645,Continuous,2022.1.1,None,
9,0,9,0,5,0,5,0,,,,,,,,1.6553164146383987,none,2095.0,6.874796633541804,0.0001697328771033167,0,52,[],0.006449066655477509,None,['space'],432.6188417999947,432.6188417999947,0.20916936665889807,1.8644857812972968,432.8344125000003,432.6188417999947,[-1.1434187999984715],,,,,,,,regvnx,001,fr,0,2022-04-28_15h23.14.645,Continuous,2022.1.1,None,
9,0,9,0,6,0,6,0,,,,,,,,2.423183297350471,none,4438.0,8.3670186365521,0.0002989163376875287,0,53,[],0.005356766661861911,None,None,434.52059659999213,434.52059659999213,0.21190376667072996,2.635087064021201,434.74225899999146,434.52059659999213,,,,,,,,,regvnx,001,fr,0,2022-04-28_15h23.14.645,Continuous,2022.1.1,None,
9,0,9,0,7,0,7,0,,,,,,,,1.750894316570531,none,2962.0,9.47344281722664,0.00017019895250290295,0,54,[],0.005622466647764668,None,['space'],437.19007680000504,437.19007680000504,0.20643096664571203,1.957325283216243,437.4096850999922,437.19007680000504,[-2.194984400004614],,,,,,,,regvnx,001,fr,0,2022-04-28_15h23.14.645,Continuous,2022.1.1,None,
9,0,9,0,8,0,8,0,,,,,,,,1.5791476458560092,none,7044.0,0.6175521804996098,0.0001638020754235698,0,55,[],0.007307466643396765,None,None,439.1924338999961,439.1924338999961,0.22056416666600853,1.7997118125220177,439.4147881999961,439.1924338999961,,,,,,,,,regvnx,001,fr,0,2022-04-28_15h23.14.645,Continuous,2022.1.1,None,
9,0,9,0,9,0,9,0,,,,,,,,1.081463509593663,none,623.0,5.275337244834519,9.591984002218505e-05,0,56,[],0.003320466697914526,0.19639636669307947,['space'],441.0147641999938,441.0147641999938,0.19639636669307947,1.2778598762867426,441.23074669999187,441.0147641999938,[-1.2834226000122726],,,,,,,,regvnx,001,fr,0,2022-04-28_15h23.14.645,Continuous,2022.1.1,None,
9,0,9,0,10,0,10,0,,,,,,,,2.7135281324437743,none,416.0,6.217413755530378,0.00015494507730652983,0,57,[],0.007239966653287411,None,None,442.33876290000626,442.33876290000626,0.2080701666418463,2.9215982990856206,442.55819409998367,442.33876290000626,,,,,,,,,regvnx,001,fr,0,2022-04-28_15h23.14.645,Continuous,2022.1.1,None,
9,0,9,0,11,0,11,0,,,,,,,,1.45764453381987,none,1110.0,0.8404052452864876,5.359616319136147e-05,0,58,[],0.003921466646715999,None,['space'],445.2987678000063,445.2987678000063,0.20177856663940474,1.6594231004592748,445.514136599988,445.2987678000063,[-2.3673134999989998],,,,,,,,regvnx,001,fr,0,2022-04-28_15h23.14.645,Continuous,2022.1.1,None,
9,0,9,0,12,0,12,0,,,,,,,,2.0186136885211377,none,5591.0,4.340580816038051,0.00021584483935856754,0,59,[],0.0028916666633449495,0.19695256667910144,None,447.00170590000926,447.00170590000926,0.19695256667910144,2.215566255200239,447.21557500000927,447.00170590000926,,,,,,,,,regvnx,001,fr,0,2022-04-28_15h23.14.645,Continuous,2022.1.1,None,
9,0,9,0,13,0,13,0,,,,,,,,2.847026211942552,none,,,,1,59,[],0.006899966683704406,None,None,449.2666787999915,449.2666787999915,0.21120296666049398,3.058229178603046,449.4714785999968,449.2666787999915,,,,,,,,,regvnx,001,fr,0,2022-04-28_15h23.14.645,Continuous,2022.1.1,None,
10,0,10,0,0,0,0,0,,,,,,473.70372590000625,None,2.2549334178675062,time,1261.0,2.311035637915338,7.076857981979276e-05,0,45,[],0.013011566654313356,None,None,474.7349295000022,None,0.2196670666744467,2.474600484541953,474.947362100007,None,,452.35371289998875,None,"[0.3333333333333333, 0.3333333333333333, 0.3333333333333333, 0.16666666666666666, 0.16666666666666666, 0.16666666666666666, 0.16666666666666666, 0.5833333333333334, 0.5833333333333334, 0.3333333333333333, 0.5833333333333334, 0.5833333333333334, 0.3333333333333333, 0.5833333333333334, 0.3333333333333333]",,,,,regvnx,001,fr,0,2022-04-28_15h23.14.645,Continuous,2022.1.1,None,
10,0,10,0,1,0,1,0,,,,,,,,2.2549334178675062,time,5040.0,6.0,0.00030182533110326647,0,46,[],0.0066256666905246675,None,None,477.2297289999842,477.2297289999842,0.20868696668185294,2.463620384549359,477.43933679998736,477.2297289999842,,,,,,,,,regvnx,001,fr,0,2022-04-28_15h23.14.645,Continuous,2022.1.1,None,
10,0,10,0,2,0,2,0,,,,,,,,2.2549334178675062,time,2670.0,7.9689255267129075,0.000188547431553404,0,47,[],0.0069617666595149785,None,['space'],479.7280541000073,479.7280541000073,0.21547756664222106,2.4704109845097273,479.9495930999983,479.7280541000073,[-2.076099800004158],,,,,,,,regvnx,001,fr,0,2022-04-28_15h23.14.645,Continuous,2022.1.1,None,
10,0,10,0,3,0,3,0,,,,,,,,2.2549334178675062,time,707.0,4.607594830187313,7.54889043489561e-05,0,48,[],0.0001741666637826711,None,['space'],482.2306108000048,482.2306108000048,0.2002505666750949,2.455183984542601,482.4487540999835,482.2306108000048,[-2.099134199990658],,,,,,,,regvnx,001,fr,0,2022-04-28_15h23.14.645,Continuous,2022.1.1,None,
10,0,10,0,4,0,4,0,,,,,,,,2.2549334178675062,time,1123.0,4.938711923481575,8.687119680713948e-05,0,49,[],0.006837666645878926,None,['space'],484.7393207999994,484.7393207999994,0.2141570666572079,2.469090484524714,484.9589142999903,484.7393207999994,[-1.7432585000060499],,,,,,,,regvnx,001,fr,0,2022-04-28_15h23.14.645,Continuous,2022.1.1,None,
10,0,10,0,5,0,5,0,,,,,,,,2.2549334178675062,time,,,,1,49,[],0.007051466673146933,None,['space'],487.23960120000993,487.23960120000993,0.2138931666559074,2.4688265845234136,487.4534350000031,487.23960120000993,[-0.9809062000131235],,,,,,,,regvnx,001,fr,0,2022-04-28_15h23.14.645,Continuous,2022.1.1,None,
10,0,10,0,6,0,6,0,,,,,,,,2.2549334178675062,time,1782.0,5.905033461992028,0.00012821944241126927,0,50,[],0.003513166680932045,None,['space'],489.73602760001086,489.73602760001086,0.20504686667118222,2.4599802845386884,489.94715580000775,489.73602760001086,[0.02747030000318773],,,,,,,,regvnx,001,fr,0,2022-04-28_15h23.14.645,Continuous,2022.1.1,None,
10,0,10,0,7,0,7,0,,,,,,,,2.2549334178675062,time,1588.0,3.6973416501695127,8.531177280284075e-05,0,51,[],0.0031091666605789214,None,['space'],492.23650130000897,492.23650130000897,0.20185476663755253,2.4567881845050588,492.4492467000091,492.23650130000897,[-0.21711170001071878],,,,,,,,regvnx,001,fr,0,2022-04-28_15h23.14.645,Continuous,2022.1.1,None,
10,0,10,0,8,0,8,0,,,,,,,,2.2549334178675062,time,1415.0,4.83846930752295,8.799630114338394e-05,0,52,[],0.002449666673783213,None,['space'],494.7371598999889,494.7371598999889,0.2146244666655548,2.469557884533061,494.9569932000013,494.7371598999889,[-1.6610062000108883],,,,,,,,regvnx,001,fr,0,2022-04-28_15h23.14.645,Continuous,2022.1.1,None,
10,0,10,0,9,0,9,0,,,,,,,,2.2549334178675062,time,7551.0,4.850506954440307,0.00029352861765692527,0,53,[],0.0038236666296143085,None,['space'],497.2394331000105,497.2394331000105,0.21217896664165892,2.467112384509165,497.45785849998356,497.2394331000105,[-1.1558353000145871],,,,,,,,regvnx,001,fr,0,2022-04-28_15h23.14.645,Continuous,2022.1.1,None,
10,0,10,0,10,0,10,0,,,,,,,,2.2549334178675062,time,4000.0,6.0,0.0001674827195789138,0,54,[],0.006571066682226956,None,['space'],499.741145100008,499.741145100008,0.22127696668030694,2.476210384547813,499.95647899998585,499.741145100008,[-1.9454017000098247],,,,,,,,regvnx,001,fr,0,2022-04-28_15h23.14.645,Continuous,2022.1.1,None,
11,0,11,0,0,0,0,0,,,,,,508.644982400001,None,1.5793542493843489,time,530.0,3.3795794033981545,9.852031370653469e-05,0,55,[],0.013044266670476645,None,None,509.655823899986,None,0.21766336666769348,1.7970176160520424,509.88497690000804,None,,502.24504730000626,None,"[0.16666666666666666, 0.16666666666666666, 0.5833333333333334, 0.3333333333333333, 0.16666666666666666, 0.16666666666666666, 0.16666666666666666, 0.5833333333333334, 0.3333333333333333, 0.5833333333333334, 0.16666666666666666, 0.16666666666666666, 0.3333333333333333, 0.5833333333333334, 0.16666666666666666]",,,,,regvnx,001,fr,0,2022-04-28_15h23.14.645,Continuous,2022.1.1,None,
11,0,11,0,1,0,1,0,,,,,,,,1.5793542493843489,time,167.0,2.204383825117925,0.0004970352243964428,0,56,[],0.002142666664440185,0.19730366667499766,None,511.4862152999849,511.4862152999849,0.19730366667499766,1.7766579160593465,511.7048641000001,511.4862152999849,,,,,,,,,regvnx,001,fr,0,2022-04-28_15h23.14.645,Continuous,2022.1.1,None,
11,0,11,0,2,0,2,0,,,,,,,,1.5793542493843489,time,1262.0,0.459446719920076,5.7156047634897125e-05,0,57,[],0.0023014666803646833,0.19695936667267233,None,513.3063783000107,513.3063783000107,0.19695936667267233,1.7763136160570212,513.5227975999878,513.3063783000107,,,,,,,,,regvnx,001,fr,0,2022-04-28_15h23.14.645,Continuous,2022.1.1,None,
11,0,11,0,3,0,3,0,,,,,,,,1.5793542493843489,time,595.0,3.036540528484355,8.032165601240154e-05,0,58,[],0.0011208666546735913,0.19478706666268408,None,515.129126099986,515.129126099986,0.19478706666268408,1.774141316047033,515.3426012999844,515.129126099986,,,,,,,,,regvnx,001,fr,0,2022-04-28_15h23.14.645,Continuous,2022.1.1,None,
11,0,11,0,4,0,4,0,,,,,,,,1.5793542493843489,time,,,,1,58,[],0.006465466663939878,None,None,516.9506529000064,516.9506529000064,0.21130826667649671,1.7906625160608456,517.1638629999943,516.9506529000064,,,,,,,,,regvnx,001,fr,0,2022-04-28_15h23.14.645,Continuous,2022.1.1,None,
11,0,11,0,5,0,5,0,,,,,,,,1.5793542493843489,time,149.0,2.6556317336916546,0.0006911049309807977,0,59,[],0.00756306663970463,None,None,518.768995099992,518.768995099992,0.21199736665585078,1.7913516160401997,518.982156299986,518.768995099992,,,,,,,,,regvnx,001,fr,0,2022-04-28_15h23.14.645,Continuous,2022.1.1,None,
11,0,11,0,6,0,6,0,,,,,,,,1.5793542493843489,time,354.0,2.0,0.00011141034968120162,0,60,[],0.016466333327116445,None,None,520.5947044999921,520.5947044999921,0.24020103333168663,1.8195552827160355,520.825798899983,520.5947044999921,,,,,,,,,regvnx,001,fr,0,2022-04-28_15h23.14.645,Continuous,2022.1.1,None,
11,0,11,0,7,0,7,0,,,,,,,,1.5793542493843489,time,1417.0,1.4657019732320977,5.9620839529783225e-05,0,61,[],0.005238866666331887,None,None,522.4314983999939,522.4314983999939,0.2112085666449275,1.7905628160292764,522.6444600000104,522.4314983999939,,,,,,,,,regvnx,001,fr,0,2022-04-28_15h23.14.645,Continuous,2022.1.1,None,
11,0,11,0,8,0,8,0,,,,,,,,1.5793542493843489,time,133.0,3.5583756973367873,0.000981366984629425,0,62,[],0.01503883331315592,None,None,524.251059000002,524.251059000002,0.217340333329048,1.7966945827133969,524.4723482999834,524.251059000002,,,,,,,,,regvnx,001,fr,0,2022-04-28_15h23.14.645,Continuous,2022.1.1,None,
11,0,11,0,9,0,9,0,,,,,,,,1.5793542493843489,time,842.0,1.2043394094453808,4.5445713442203294e-05,0,63,[],0.005975566687993705,None,['space'],526.0839384999999,526.0839384999999,0.21289736666949466,1.7922516160538435,526.2994616999931,526.0839384999999,[-0.6080707999935839],,,,,,,,regvnx,001,fr,0,2022-04-28_15h23.14.645,Continuous,2022.1.1,None,
11,0,11,0,10,0,10,0,,,,,,,,1.5793542493843489,time,668.0,2.1923407795162575,6.156566134713722e-05,0,64,[],0.00016646666335873306,None,None,527.9108430999913,527.9108430999913,0.19883536666748114,1.77818961605183,528.1301979999989,527.9108430999913,,,,,,,,,regvnx,001,fr,0,2022-04-28_15h23.14.645,Continuous,2022.1.1,None,
11,0,11,0,11,0,11,0,,,,,,,,1.5793542493843489,time,188.0,7.051574311335028,0.0006962132448382512,0,65,[],0.0020992666541133076,None,None,529.7401385999983,529.7401385999983,0.19698486663401127,1.7763391160183601,529.9547534000012,529.7401385999983,,,,,,,,,regvnx,001,fr,0,2022-04-28_15h23.14.645,Continuous,2022.1.1,None,
12,0,12,0,0,0,0,0,,,,,,541.8915274000028,None,2.0378675695089106,none,165.0,14.227119050416253,0.0020213923754375538,0,60,[],0.012529766652733088,None,None,542.9070036000048,None,0.21922576666111127,2.257093336170022,543.1170060999866,None,,531.5730774999829,None,"[0.5833333333333334, 0.16666666666666666, 0.5833333333333334, 0.16666666666666666, 0.5833333333333334, 0.16666666666666666, 0.16666666666666666, 0.3333333333333333, 0.16666666666666666, 0.5833333333333334, 0.3333333333333333, 0.3333333333333333, 0.3333333333333333, 0.5833333333333334, 0.16666666666666666]",,,,,regvnx,001,fr,0,2022-04-28_15h23.14.645,Continuous,2022.1.1,None,
12,0,12,0,1,0,1,0,,,,,,,,2.647359548146685,none,440.0,15.946866777943276,0.00046726239882977,0,61,[],0.003598466661060229,None,None,545.1869650000008,545.1869650000008,0.200371566665126,2.847731114811811,545.403613500006,545.1869650000008,,,,,,,,,regvnx,001,fr,0,2022-04-28_15h23.14.645,Continuous,2022.1.1,None,
12,0,12,0,2,0,2,0,,,,,,,,2.5934679713360866,none,131.0,13.0936339361616,0.0030220695953612625,0,62,[],0.0058295666531194,None,['space'],548.0838803999941,548.0838803999941,0.20782636664807796,2.8012943379841646,548.295446700009,548.0838803999941,[-2.4958551000163425],,,,,,,,regvnx,001,fr,0,2022-04-28_15h23.14.645,Continuous,2022.1.1,None,
12,0,12,0,3,0,3,0,,,,,,,,2.644073758941751,none,1046.0,8.977104897307385,0.00012923825048995113,0,63,[],0.005706866679247469,None,['space'],550.9260036000051,550.9260036000051,0.2081947666592896,2.8522685256010405,551.1352641999838,550.9260036000051,[-2.4746351999929175],,,,,,,,regvnx,001,fr,0,2022-04-28_15h23.14.645,Continuous,2022.1.1,None,
12,0,12,0,4,0,4,0,,,,,,,,2.1079170345401037,none,233.0,17.0,0.0014214769101587015,0,64,[],0.003103966679191217,None,['space'],553.8135470999987,553.8135470999987,0.2022569666733034,2.310174001213407,554.0287103999872,553.8135470999987,[-2.417414600000484],,,,,,,,regvnx,001,fr,0,2022-04-28_15h23.14.645,Continuous,2022.1.1,None,
12,0,12,0,5,0,5,0,,,,,,,,1.6460573262187816,none,554.0,13.252735592329849,0.0002898143261622447,0,65,[],0.0038201666611712426,0.20031666668364778,['space'],556.1653332999849,556.1653332999849,0.20031666668364778,1.8463739929024294,556.3754378999874,556.1653332999849,[-1.8575593999994453],,,,,,,,regvnx,001,fr,0,2022-04-28_15h23.14.645,Continuous,2022.1.1,None,
12,0,12,0,6,0,6,0,,,,,,,,1.4269176455641233,none,349.0,16.525482366775616,0.0006018988626424698,0,66,[],0.0018884666787926108,None,['space'],558.0530456999841,558.0530456999841,0.20041486667469144,1.6273325122388147,558.2730493999843,558.0530456999841,[-1.5055395000090357],,,,,,,,regvnx,001,fr,0,2022-04-28_15h23.14.645,Continuous,2022.1.1,None,
12,0,12,0,7,0,7,0,,,,,,,,2.976963177796389,none,,,,1,66,[],0.0055278666550293565,None,None,559.7360165999853,559.7360165999853,0.2050629666482564,3.1820261444446456,559.9431459000043,559.7360165999853,,,,,,,,,regvnx,001,fr,0,2022-04-28_15h23.14.645,Continuous,2022.1.1,None,
12,0,12,0,8,0,8,0,,,,,,,,1.0902099403547985,none,208.0,10.238350376832269,0.0008118121281941388,0,67,[],0.006823566684033722,None,['space'],562.9553601999942,562.9553601999942,0.20958376667113043,1.299793707025929,563.1716906999936,562.9553601999942,[-2.5197753999964334],,,,,,,,regvnx,001,fr,0,2022-04-28_15h23.14.645,Continuous,2022.1.1,None,
12,0,12,0,9,0,9,0,,,,,,,,1.9187820546038385,none,147.0,9.370435168583187,0.0015495845663549906,0,68,[],0.005255166644928977,None,['space'],564.2892415999959,564.2892415999959,0.2046762666432187,2.1234583212470572,564.5071695999941,564.2892415999959,[-0.6052892000006977],,,,,,,,regvnx,001,fr,0,2022-04-28_15h23.14.645,Continuous,2022.1.1,None,
12,0,12,0,10,0,10,0,,,,,,,,1.6004968513658866,none,1174.0,6.466812201909727,0.00010807243764076749,0,69,[],0.0053489666897803545,None,['space'],566.4585791999998,566.4585791999998,0.2068677666829899,1.8073646180488765,566.6755516999983,566.4585791999998,[-1.640001099993242],,,,,,,,regvnx,001,fr,0,2022-04-28_15h23.14.645,Continuous,2022.1.1,None,
13,0,13,0,0,0,0,0,,,,,0.16666666666666666,580.7314463999937,None,2.4022247419598384,both,8000.0,1.0,0.0002036901389020564,0,39,[],0.013071966648567468,None,None,581.7482919000031,None,0.2021947666653432,2.6044195086251816,581.9509824999841,None,,568.3090439999942,None,,,,,,regvnx,001,fr,0,2022-04-28_15h23.14.645,Continuous,2022.1.1,None,
13,0,13,0,1,0,1,0,,,,,,,,2.4022247419598384,both,7127.0,-2.1614258059818847,0.00012091333240405694,0,40,[],0.004696866701124236,None,['space'],584.3889149999886,584.3889149999886,0.20638376669376157,2.6086085086536,584.5983095999982,584.3889149999886,[-1.9850698999944143],,,,,,,,regvnx,001,fr,0,2022-04-28_15h23.14.645,Continuous,2022.1.1,None,
13,0,13,0,2,0,2,0,,,,,,,,2.4022247419598384,both,6349.0,0.24018024462873488,0.00013518004509195907,0,41,[],0.0016448666574433446,0.19571716664358974,['space'],587.0343730000022,587.0343730000022,0.19571716664358974,2.597941908603428,587.247664399998,587.0343730000022,[-2.1665410000132397],,,,,,,,regvnx,001,fr,0,2022-04-28_15h23.14.645,Continuous,2022.1.1,None,
13,0,13,0,3,0,3,0,,,,,,,,2.4022247419598384,both,5656.0,2.5002268694935994,0.00017143557569019918,0,42,[],0.01505053334403783,None,None,589.6774044999911,589.6774044999911,0.21099553332896903,2.6132202752888074,589.8992036999844,589.6774044999911,,,,,,,,,regvnx,001,fr,0,2022-04-28_15h23.14.645,Continuous,2022.1.1,None,
13,0,13,0,4,0,4,0,,,,,,,,2.4022247419598384,both,5039.0,2.706538185814395,0.00020662765784225032,0,43,[],0.005246266635367647,None,['space'],592.3313204000005,592.3313204000005,0.20791906662634574,2.610143808586184,592.541169300006,592.3313204000005,[-1.0153683999960776],,,,,,,,regvnx,001,fr,0,2022-04-28_15h23.14.645,Continuous,2022.1.1,None,
13,0,13,0,5,0,5,0,,,,,,,,2.4022247419598384,both,4489.0,8.355534956782641,0.0003077041399333911,0,44,[],0.0018621666822582483,None,['space'],594.976637099986,594.976637099986,0.19583226667600684,2.598057008635845,595.1946265999868,594.976637099986,[-2.1089686000195798],,,,,,,,regvnx,001,fr,0,2022-04-28_15h23.14.645,Continuous,2022.1.1,None,
13,0,13,0,6,0,6,0,,,,,,,,2.4022247419598384,both,3999.0,8.839876937852324,0.00023220577650519335,0,45,[],0.0006708666624035686,None,['space'],597.629443999991,597.629443999991,0.19408956667757593,2.5963143086374143,597.8424727999954,597.629443999991,[-2.2978483000188135],,,,,,,,regvnx,001,fr,0,2022-04-28_15h23.14.645,Continuous,2022.1.1,None,
13,0,13,0,7,0,7,0,,,,,,,,2.4022247419598384,both,,,,1,45,[],0.004971166636096314,None,['space'],600.2795245999878,600.2795245999878,0.2092176666483283,2.6114424086081667,600.4945364999876,600.2795245999878,[-2.212606000015512],,,,,,,,regvnx,001,fr,0,2022-04-28_15h23.14.645,Continuous,2022.1.1,None,
13,0,13,0,8,0,8,0,,,,,,,,2.4022247419598384,both,3174.0,8.136842667897138,0.00017719646183766234,0,46,[],0.006044266658136621,None,['space'],602.9304917999834,602.9304917999834,0.21186466666404158,2.61408940862388,603.1469644999888,602.9304917999834,[-0.9429310999985319],,,,,,,,regvnx,001,fr,0,2022-04-28_15h23.14.645,Continuous,2022.1.1,None,
14,0,14,0,0,0,0,0,,,,,0.3333333333333333,620.3280964999867,None,1.3013680461330175,both,1516.0,1.9614880668623782,6.223441299427027e-05,0,47,[],0.012450666661607102,None,None,621.3549530000018,None,0.23024566666572355,1.531613712798741,621.5710255999875,None,,605.578496400005,None,,,,,,regvnx,001,fr,0,2022-04-28_15h23.14.645,Continuous,2022.1.1,None,
14,0,14,0,1,0,1,0,,,,,,,,1.3013680461330175,both,1203.0,-0.4907425819217929,4.965701709015931e-05,0,48,[],0.004432866699062288,None,None,622.9018940000096,622.9018940000096,0.2098343666875735,1.511202412820591,623.1127903999877,622.9018940000096,,,,,,,,,regvnx,001,fr,0,2022-04-28_15h23.14.645,Continuous,2022.1.1,None,
14,0,14,0,2,0,2,0,,,,,,,,1.3013680461330175,both,955.0,-0.3123793693136066,4.1262488830995646e-05,0,49,[],0.015474633313715458,None,None,624.4509770000004,624.4509770000004,0.22088633332168683,1.5222543794547043,624.6699654999829,624.4509770000004,,,,,,,,,regvnx,001,fr,0,2022-04-28_15h23.14.645,Continuous,2022.1.1,None,
14,0,14,0,3,0,3,0,,,,,,,,1.3013680461330175,both,758.0,2.523499083986982,5.385678327229839e-05,0,50,[],0.004652366682421416,None,['space'],626.0052809999906,626.0052809999906,0.20530456668348052,1.506672612816498,626.2192634000094,626.0052809999906,[-0.7856442000193056],,,,,,,,regvnx,001,fr,0,2022-04-28_15h23.14.645,Continuous,2022.1.1,None,
14,0,14,0,4,0,4,0,,,,,,,,1.3013680461330175,both,602.0,0.8893345307609444,6.15198408453457e-05,0,51,[],0.016430433344794437,None,None,627.564470399986,627.564470399986,0.23406423334381543,1.535432279476833,627.7879966000037,627.564470399986,,,,,,,,,regvnx,001,fr,0,2022-04-28_15h23.14.645,Continuous,2022.1.1,None,
14,0,14,0,5,0,5,0,,,,,,,,1.3013680461330175,both,478.0,4.370041565877639,0.00012001960090134198,0,52,[],0.0012843666481785476,None,['space'],629.1149767999887,629.1149767999887,0.2017611666524317,1.5031292127854492,629.3262841000105,629.1149767999887,[-1.255980499990983],,,,,,,,regvnx,001,fr,0,2022-04-28_15h23.14.645,Continuous,2022.1.1,None,
14,0,14,0,6,0,6,0,,,,,,,,1.3013680461330175,both,379.0,-1.0,7.308806860871985e-05,0,53,[],0.013193033344577998,None,['space'],630.6724206999934,630.6724206999934,0.21177653333870694,1.5131445794717244,630.8866295999906,630.6724206999934,[-1.1326887999894097],,,,,,,,regvnx,001,fr,0,2022-04-28_15h23.14.645,Continuous,2022.1.1,None,
14,0,14,0,7,0,7,0,,,,,,,,1.3013680461330175,both,301.0,12.05567563541365,0.0004545683970972742,0,54,[],0.004611566633684561,None,['space'],632.22330469999,632.22330469999,0.20641726662870497,1.5077853127617225,632.4389379000058,632.22330469999,[-0.9709063999762293],,,,,,,,regvnx,001,fr,0,2022-04-28_15h23.14.645,Continuous,2022.1.1,None,
14,0,14,0,8,0,8,0,,,,,,,,1.3013680461330175,both,,,,1,54,[],0.013272933341795579,None,['space'],633.7741067000024,633.7741067000024,0.22443533333716914,1.5258033794701866,633.9957069999946,633.7741067000024,[-0.4743325999879744],,,,,,,,regvnx,001,fr,0,2022-04-28_15h23.14.645,Continuous,2022.1.1,None,
14,0,14,0,9,0,9,0,,,,,,,,1.3013680461330175,both,190.0,3.7410341920656913,0.00046436571946000926,0,55,[],0.002733766654273495,None,None,635.3202282999991,635.3202282999991,0.1979650666762609,1.4993331128092784,635.534405399987,635.3202282999991,,,,,,,,,regvnx,001,fr,0,2022-04-28_15h23.14.645,Continuous,2022.1.1,None,
14,0,14,0,10,0,10,0,,,,,,,,1.3013680461330175,both,151.0,3.936244974069516,0.0007728796409417681,0,56,[],0.0126341333379969,None,"['space', 'space']",636.8770684000046,636.8770684000046,0.22701833333121613,1.5283863794642336,637.1000879000057,636.8770684000046,"[-1.337105899991002, -0.6976373000070453]",,,,,,,,regvnx,001,fr,0,2022-04-28_15h23.14.645,Continuous,2022.1.1,None,
15,0,15,0,0,0,0,0,,,,,,656.7286400999874,None,1.9055624479680786,none,405.0,3.4623011560044805,0.00011366670580937018,0,70,[],0.012797266681445763,None,None,657.7581202999863,None,0.23877266666386276,2.144335114631941,657.982764299988,None,,638.4362252999854,None,"[0.5833333333333334, 0.3333333333333333, 0.3333333333333333, 0.5833333333333334, 0.3333333333333333, 0.16666666666666666, 0.16666666666666666, 0.16666666666666666, 0.16666666666666666, 0.5833333333333334, 0.5833333333333334, 0.5833333333333334, 0.5833333333333334, 0.5833333333333334, 0.16666666666666666]",,,,,regvnx,001,fr,0,2022-04-28_15h23.14.645,Continuous,2022.1.1,None,
15,0,15,0,1,0,1,0,,,,,,,,2.487602747864302,none,574.0,0.0,5.990067042515293e-05,0,71,[],0.013316333323018625,None,['space'],659.9200373000058,659.9200373000058,0.23648993333335966,2.7240926811976616,660.1564280999883,659.9200373000058,[-1.0200705000024755],,,,,,,,regvnx,001,fr,0,2022-04-28_15h23.14.645,Continuous,2022.1.1,None,
15,0,15,0,2,0,2,0,,,,,,,,1.4182849256265369,none,511.0,4.771009397410308,0.00012077081579297528,0,72,[],0.0011458666704129428,0.19448436665697955,None,662.6658055000007,662.6658055000007,0.19448436665697955,1.6127692922835164,662.8810318000033,662.6658055000007,,,,,,,,,regvnx,001,fr,0,2022-04-28_15h23.14.645,Continuous,2022.1.1,None,
15,0,15,0,3,0,3,0,,,,,,,,1.6180440211427878,none,192.0,2.747984451386083,0.0004042030579171557,0,73,[],0.016082733345683664,None,['space'],664.3334240000113,664.3334240000113,0.21778103333781473,1.8358250544806025,664.545062899997,664.3334240000113,[-1.1770264999940991],,,,,,,,regvnx,001,fr,0,2022-04-28_15h23.14.645,Continuous,2022.1.1,None,
15,0,15,0,4,0,4,0,,,,,,,,1.741163550670344,none,,,,1,73,[],0.0028881666949018836,0.20052216667681932,None,666.1979966000072,666.1979966000072,0.20052216667681932,1.9416857173471633,666.4070264000038,666.1979966000072,,,,,,,,,regvnx,001,fr,0,2022-04-28_15h23.14.645,Continuous,2022.1.1,None,
15,0,15,0,5,0,5,0,,,,,,,,1.8208694079840568,none,152.0,0.697968790161152,0.000522703234829235,0,74,[],0.0052192666626069695,None,['space'],668.182662200008,668.182662200008,0.2147488666814752,2.035618274665532,668.4035643000097,668.182662200008,[0.09223119998932816],,,,,,,,regvnx,001,fr,0,2022-04-28_15h23.14.645,Continuous,2022.1.1,None,
15,0,15,0,6,0,6,0,,,,,,,,1.796600189215892,none,4335.0,1.289045830924744,0.0001241069599899031,0,75,[],0.0005421666719485074,None,None,670.2537749999901,670.2537749999901,0.19676396666909568,1.9933641558849877,670.4689352999849,670.2537749999901,,,,,,,,,regvnx,001,fr,0,2022-04-28_15h23.14.645,Continuous,2022.1.1,None,
15,0,15,0,7,0,7,0,,,,,,,,1.9490958371920948,none,1289.0,0.0,5.3540982434772944e-05,0,76,[],5.936669185757637e-05,0.19636236666701734,None,672.2955266000063,672.2955266000063,0.19636236666701734,2.1454582038591123,672.5143986000039,672.2955266000063,,,,,,,,,regvnx,001,fr,0,2022-04-28_15h23.14.645,Continuous,2022.1.1,None,
15,0,15,0,8,0,8,0,,,,,,,,1.860047281901749,none,287.0,9.057287575665612,0.0003639476018219165,0,77,[],0.003834966686554253,None,None,674.4893043999909,674.4893043999909,0.2053815666877199,2.0654288485894687,674.7031377000094,674.4893043999909,,,,,,,,,regvnx,001,fr,0,2022-04-28_15h23.14.645,Continuous,2022.1.1,None,
15,0,15,0,9,0,9,0,,,,,,,,2.3431920184258197,none,4866.0,4.4005816705653995,0.0002382099402548476,0,78,[],0.0008570666541345417,0.19346916666836478,None,676.5974322000111,676.5974322000111,0.19346916666836478,2.5366611850941845,676.8120101999957,676.5974322000111,,,,,,,,,regvnx,001,fr,0,2022-04-28_15h23.14.645,Continuous,2022.1.1,None,
15,0,15,0,10,0,10,0,,,,,,,,2.412549423535974,none,455.0,8.301524015725693,0.00019177994790286598,0,79,[],0.0005080666451249272,0.19545836665201932,['space'],679.1825983999879,679.1825983999879,0.19545836665201932,2.6080077901879934,679.3989202000084,679.1825983999879,[-0.6032614999858197],,,,,,,,regvnx,001,fr,0,2022-04-28_15h23.14.645,Continuous,2022.1.1,None,
15,0,15,0,11,0,11,0,,,,,,,,1.4193063288122074,none,860.0,0.9245883902449725,4.457439433157985e-05,0,80,[],0.009903233352815732,None,['space'],681.8986185000103,681.8986185000103,0.21337273335666396,1.6326790621688714,682.1231692000001,681.8986185000103,[-2.167065099987667],,,,,,,,regvnx,001,fr,0,2022-04-28_15h23.14.645,Continuous,2022.1.1,None,
15,0,15,0,12,0,12,0,,,,,,,,1.9344750294379809,none,361.0,4.370185233059807,0.0001433586071238333,0,81,[],0.002374666655668989,None,['space'],683.5833330999885,683.5833330999885,0.20436516663176008,2.138840196069741,683.8040929999843,683.5833330999885,[-1.0034545000235084],,,,,,,,regvnx,001,fr,0,2022-04-28_15h23.14.645,Continuous,2022.1.1,None,
15,0,15,0,13,0,13,0,,,,,,,,2.8832088895088477,none,1931.0,1.803197842996032,8.823809889991593e-05,0,82,[],0.0030116666748654097,None,None,685.7691511999874,685.7691511999874,0.205287466669688,3.0884963561785357,685.9884805000038,685.7691511999874,,,,,,,,,regvnx,001,fr,0,2022-04-28_15h23.14.645,Continuous,2022.1.1,None,
16,0,16,0,0,0,0,0,,,,,,709.6061271000071,None,1.4563788648885927,none,296.0,7.759676599730393,0.00029014634810032084,0,83,[],0.012722866697004065,None,None,710.6199572999903,None,0.22199966668267734,1.67837853157127,710.8377399999881,None,,688.9058090999897,None,"[0.5833333333333334, 0.5833333333333334, 0.5833333333333334, 0.3333333333333333, 0.3333333333333333, 0.3333333333333333, 0.3333333333333333, 0.16666666666666666, 0.5833333333333334, 0.3333333333333333, 0.16666666666666666, 0.5833333333333334, 0.16666666666666666, 0.3333333333333333, 0.16666666666666666]",,,,,regvnx,001,fr,0,2022-04-28_15h23.14.645,Continuous,2022.1.1,None,
16,0,16,0,1,0,1,0,,,,,,,,2.0727786040414875,none,157.0,8.327346158242891,0.0011420170786527514,0,84,[],0.014017533307196572,None,None,712.3238444000017,712.3238444000017,0.23548913330887444,2.308267737350362,712.555518899986,712.3238444000017,,,,,,,,,regvnx,001,fr,0,2022-04-28_15h23.14.645,Continuous,2022.1.1,None,
16,0,16,0,2,0,2,0,,,,,,,,1.4195660248460864,none,,,,1,84,[],0.00046326665324158967,0.1925674666708801,['space'],714.655113899993,714.655113899993,0.1925674666708801,1.6121334915169665,714.8688991999952,714.655113899993,[-1.9317331000056583],,,,,,,,regvnx,001,fr,0,2022-04-28_15h23.14.645,Continuous,2022.1.1,None,
16,0,16,0,3,0,3,0,,,,,,,,2.3171086773103733,none,419.0,5.993870342710218,0.0001507025898405696,0,85,[],0.0044373667042236775,None,None,716.3174652000016,716.3174652000016,0.20941726668388583,2.526525943994259,716.5256816000037,716.3174652000016,,,,,,,,,regvnx,001,fr,0,2022-04-28_15h23.14.645,Continuous,2022.1.1,None,
16,0,16,0,4,0,4,0,,,,,,,,2.8487345243820146,none,264.0,8.63597243462456,0.00041257058271314175,0,86,[],0.00023856665939092636,0.19604886666638777,['space'],718.8709831000015,718.8709831000015,0.19604886666638777,3.0447833910484023,719.0854724000092,718.8709831000015,[-2.051694399997359],,,,,,,,regvnx,001,fr,0,2022-04-28_15h23.14.645,Continuous,2022.1.1,None,
16,0,16,0,5,0,5,0,,,,,,,,1.3101227664975206,none,176.0,5.780888492777913,0.0006864899082354342,0,87,[],0.01636913334368728,None,['space'],721.9624691999925,721.9624691999925,0.2386319333454594,1.54875469984298,722.1927574999863,721.9624691999925,[-1.0465698999760207],,,,,,,,regvnx,001,fr,0,2022-04-28_15h23.14.645,Continuous,2022.1.1,None,
16,0,16,0,6,0,6,0,,,,,,,,1.1484893677773584,none,373.0,6.609993957880784,0.000178861949632585,0,88,[],0.00551193329738453,None,None,723.5445543999958,723.5445543999958,0.20425313329906203,1.3527425010764205,723.7627573999926,723.5445543999958,,,,,,,,,regvnx,001,fr,0,2022-04-28_15h23.14.645,Continuous,2022.1.1,None,
16,0,16,0,7,0,7,0,,,,,,,,2.236282021962958,none,125.0,5.0,0.0012851978913844323,0,89,[],0.016349033336155117,None,None,724.9443820999877,724.9443820999877,0.219160633336287,2.455442655299245,725.1630421000009,724.9443820999877,,,,,,,,,regvnx,001,fr,0,2022-04-28_15h23.14.645,Continuous,2022.1.1,None,
17,0,17,0,0,0,0,0,,,,,0.16666666666666666,736.866108199989,None,1.6869737288657582,both,4593.0,7.2997629058878895,0.0002890687214133178,0,57,[],0.010453566676005721,None,None,737.8948111000063,None,0.21199666667962447,1.8989703955453827,738.1139060999849,None,,727.4303903999971,None,,,,,,regvnx,001,fr,0,2022-04-28_15h23.14.645,Continuous,2022.1.1,None,
17,0,17,0,1,0,1,0,,,,,,,,1.6869737288657582,both,4092.0,7.922478285239967,0.00022473410788960226,0,58,[],0.016143533313879743,None,['space'],739.8290190999978,739.8290190999978,0.23697733331937343,1.9239510621851317,740.0594820999831,739.8290190999978,[-1.48956369998632],,,,,,,,regvnx,001,fr,0,2022-04-28_15h23.14.645,Continuous,2022.1.1,None,
17,0,17,0,2,0,2,0,,,,,,,,1.6869737288657582,both,3646.0,6.3842155340969375,0.00016209789134398304,0,59,[],0.003057966649066657,None,['space'],741.7765803000075,741.7765803000075,0.2180789666599594,1.9050526955257177,741.9980196999968,741.7765803000075,[-0.4606381999910809],,,,,,,,regvnx,001,fr,0,2022-04-28_15h23.14.645,Continuous,2022.1.1,None,
17,0,17,0,3,0,3,0,,,,,,,,1.6869737288657582,both,3248.0,7.509965731499807,0.00016794240438154658,0,60,[],0.0026788667018990964,0.20028176667983644,None,743.712446599995,743.712446599995,0.20028176667983644,1.8872554955455947,743.9203185999941,743.712446599995,,,,,,,,,regvnx,001,fr,0,2022-04-28_15h23.14.645,Continuous,2022.1.1,None,
17,0,17,0,4,0,4,0,,,,,,,,1.6869737288657582,both,2894.0,6.012204017190518,0.00012270347551555276,0,61,[],0.0027617666637524962,None,['space'],745.6461975999991,745.6461975999991,0.21186446666251868,1.898838195528277,745.8683700999827,745.6461975999991,[-1.5787915000109933],,,,,,,,regvnx,001,fr,0,2022-04-28_15h23.14.645,Continuous,2022.1.1,None,
17,0,17,0,5,0,5,0,,,,,,,,1.6869737288657582,both,2578.0,6.475332603511337,0.00017080884123695322,0,62,[],0.0011080666445195675,None,None,747.5860332000011,747.5860332000011,0.2016099666361697,1.888583695501928,747.8004541999835,747.5860332000011,,,,,,,,,regvnx,001,fr,0,2022-04-28_15h23.14.645,Continuous,2022.1.1,None,
17,0,17,0,6,0,6,0,,,,,,,,1.6869737288657582,both,2297.0,5.0,0.0001447438757764166,0,63,[],0.01624483332852833,None,['space'],749.5213145999878,749.5213145999878,0.21650833333842456,1.9034820622041828,749.7379309000098,749.5213145999878,[-1.4227582000021357],,,,,,,,regvnx,001,fr,0,2022-04-28_15h23.14.645,Continuous,2022.1.1,None,
17,0,17,0,7,0,7,0,,,,,,,,1.6869737288657582,both,2046.0,5.0225981363810455,0.0001352008505983089,0,64,[],0.015262333356076851,None,['space'],751.461444399989,751.461444399989,0.23706843334366567,1.924042162209424,751.6903032999835,751.461444399989,[0.11000310000963509],,,,,,,,regvnx,001,fr,0,2022-04-28_15h23.14.645,Continuous,2022.1.1,None,
17,0,17,0,8,0,8,0,,,,,,,,1.6869737288657582,both,,,,1,64,[],0.0014708666421938688,None,None,753.4073729999945,753.4073729999945,0.20718416664749384,1.894157895513252,753.6265619999904,753.4073729999945,,,,,,,,,regvnx,001,fr,0,2022-04-28_15h23.14.645,Continuous,2022.1.1,None,
17,0,17,0,9,0,9,0,,,,,,,,1.6869737288657582,both,1624.0,3.8392385279170345,8.998016264435189e-05,0,65,[],0.0021785666758660227,0.19794006668962538,None,755.3414743999892,755.3414743999892,0.19794006668962538,1.8849137955553836,755.5470138000092,755.3414743999892,,,,,,,,,regvnx,001,fr,0,2022-04-28_15h23.14.645,Continuous,2022.1.1,None,
17,0,17,0,10,0,10,0,,,,,,,,1.6869737288657582,both,1447.0,3.877833855485143,7.754148264033384e-05,0,66,[],0.016011533327400684,None,['space'],757.2686546999903,757.2686546999903,0.2163586333335843,1.9033323621993425,757.4869656999945,757.2686546999903,[-1.185268500004895],,,,,,,,regvnx,001,fr,0,2022-04-28_15h23.14.645,Continuous,2022.1.1,None,
17,0,17,0,11,0,11,0,,,,,,,,1.6869737288657582,both,1289.0,3.961598252604162,8.448240108728019e-05,0,67,[],0.0026432666927576065,None,None,759.2129659999919,759.2129659999919,0.20691506669390947,1.8938887955596677,759.4276480999833,759.2129659999919,,,,,,,,,regvnx,001,fr,0,2022-04-28_15h23.14.645,Continuous,2022.1.1,None,
17,0,17,0,12,0,12,0,,,,,,,,1.6869737288657582,both,1148.0,1.32667550219398,5.853398752671961e-05,0,68,[],0.0024157667066901922,None,['space'],761.1471694000065,761.1471694000065,0.21566056669689715,1.9026342955626554,761.3662320000003,761.1471694000065,[-1.7037317999929655],,,,,,,,regvnx,001,fr,0,2022-04-28_15h23.14.645,Continuous,2022.1.1,None,
17,0,17,0,13,0,13,0,,,,,,,,1.6869737288657582,both,1023.0,2.2077247927539747,5.804146378350849e-05,0,69,[],0.0023444666585419327,None,None,763.0823259000026,763.0823259000026,0.20579706665012054,1.8927707955158788,763.2957069000113,763.0823259000026,,,,,,,,,regvnx,001,fr,0,2022-04-28_15h23.14.645,Continuous,2022.1.1,None,
17,0,17,0,14,0,14,0,,,,,,,,1.6869737288657582,both,911.0,0.3972657783780775,4.346612851370662e-05,0,70,[],0.00041676664841361344,None,None,765.018373400002,765.018373400002,0.2040062666637823,1.8909799955295405,765.2394791000115,765.018373400002,,,,,,,,,regvnx,001,fr,0,2022-04-28_15h23.14.645,Continuous,2022.1.1,None,
18,0,18,0,0,0,0,0,,,,,0.5833333333333334,786.1781069999852,None,1.2077706401120967,frequency,3167.0,6.492685948686875,0.0001463787457941554,0,63,[],0.012934666679939255,None,None,787.2239185000071,None,0.2188401666644495,1.4266108067765462,787.4406394000107,None,,766.9574925999914,None,,,,,,regvnx,001,fr,0,2022-04-28_15h23.14.645,Continuous,2022.1.1,None,
18,0,18,0,1,0,1,0,,,,,,,,2.328026801021549,frequency,2114.0,5.187356306867658,0.00014052886421719502,0,64,[],0.0055849333584774286,0.19631683334591798,['space'],788.6868624000053,788.6868624000053,0.19631683334591798,2.524343634367467,788.8980598000053,788.6868624000053,[-0.4757775999896694],,,,,,,,regvnx,001,fr,0,2022-04-28_15h23.14.645,Continuous,2022.1.1,None,
18,0,18,0,2,0,2,0,,,,,,,,1.1577733988568661,frequency,1411.0,2.3099339565881927,6.59010468685755e-05,0,65,[],0.0012519666634034365,None,None,791.2633027999836,791.2633027999836,0.20051766667165793,1.358291065528524,791.475403199991,791.2633027999836,,,,,,,,,regvnx,001,fr,0,2022-04-28_15h23.14.645,Continuous,2022.1.1,None,
18,0,18,0,3,0,3,0,,,,,,,,1.181036584267733,frequency,,,,1,65,[],0.016412533324910328,None,None,792.6678400000092,792.6678400000092,0.21827543334802613,1.3993120176157592,792.88689970001,792.6678400000092,,,,,,,,,regvnx,001,fr,0,2022-04-28_15h23.14.645,Continuous,2022.1.1,None,
18,0,18,0,4,0,4,0,,,,,,,,2.220007907439749,frequency,629.0,3.3230241377468994,7.52390589599643e-05,0,66,[],4.7966663260012865e-05,0.1913200666604098,None,794.1003930000006,794.1003930000006,0.1913200666604098,2.4113279741001588,794.3055249000026,794.1003930000006,,,,,,,,,regvnx,001,fr,0,2022-04-28_15h23.14.645,Continuous,2022.1.1,None,
18,0,18,0,5,0,5,0,,,,,,,,2.4921542099782075,frequency,420.0,3.352106349114024,0.00011110633464677732,0,67,[],0.015294033335521817,None,None,796.5612799999944,796.5612799999944,0.2098935333197005,2.702047743297908,796.7759414000029,796.5612799999944,,,,,,,,,regvnx,001,fr,0,2022-04-28_15h23.14.645,Continuous,2022.1.1,None,
18,0,18,0,6,0,6,0,,,,,,,,1.396322446184877,frequency,280.0,10.830301295863698,0.0004721677869620912,0,68,[],0.0005534666415769607,0.19871216666069813,['space'],799.3049518000043,799.3049518000043,0.19871216666069813,1.5950346128455752,799.5154350000084,799.3049518000043,[-0.5977872000075877],,,,,,,,regvnx,001,fr,0,2022-04-28_15h23.14.645,Continuous,2022.1.1,None,
18,0,18,0,7,0,7,0,,,,,,,,1.198469679742958,frequency,187.0,6.8919608192829,0.0006915889214177258,0,69,[],0.01407123333774507,None,['space'],800.9489014999999,800.9489014999999,0.20724753334070556,1.4057172130836635,801.1630480999884,800.9489014999999,[-1.1373857999860775],,,,,,,,regvnx,001,fr,0,2022-04-28_15h23.14.645,Continuous,2022.1.1,None,
18,0,18,0,8,0,8,0,,,,,,,,1.4035177505097345,frequency,125.0,3.0,0.001020868972334765,0,70,[],0.014951833290979266,None,['space'],802.4005470999982,802.4005470999982,0.22465263330377638,1.6281703838135109,802.6257295999967,802.4005470999982,[-1.0858377999975346],,,,,,,,regvnx,001,fr,0,2022-04-28_15h23.14.645,Continuous,2022.1.1,None,
19,0,19,0,0,0,0,0,,,,,0.3333333333333333,809.0520011000044,None,2.9384841509575894,frequency,499.0,-0.17397345188998692,7.007802039360376e-05,0,71,[],0.013001666666241363,None,None,810.0684091000003,None,0.20604426666977815,3.1445284176273676,810.2817922999966,None,,804.0566083999875,None,,,,,,regvnx,001,fr,0,2022-04-28_15h23.14.645,Continuous,2022.1.1,None,
19,0,19,0,1,0,1,0,,,,,,,,2.863476749277922,frequency,396.0,9.83355809548177,0.00024071290787791203,0,72,[],0.011819733306765556,None,['space'],813.2493664000067,813.2493664000067,0.23108043329557404,3.094557182573496,813.4802043999953,813.2493664000067,[-2.462744799995562],,,,,,,,regvnx,001,fr,0,2022-04-28_15h23.14.645,Continuous,2022.1.1,None,
19,0,19,0,2,0,2,0,,,,,,,,2.0663900832068665,frequency,314.0,13.032876096630115,0.00044694513259477557,0,73,[],0.001665966643486172,None,['space'],816.3740131999948,816.3740131999948,0.2056022666511126,2.271992349857979,816.5894160000025,816.3740131999948,[-2.467365799995605],,,,,,,,regvnx,001,fr,0,2022-04-28_15h23.14.645,Continuous,2022.1.1,None,
19,0,19,0,3,0,3,0,,,,,,,,2.955411770187147,frequency,249.0,3.525958554908067,0.00025428384227986305,0,74,[],0.011633433343376964,None,['space'],818.6879993999901,818.6879993999901,0.2323015333386138,3.187713303525761,818.9189596000069,818.6879993999901,[-1.9488308999862056],,,,,,,,regvnx,001,fr,0,2022-04-28_15h23.14.645,Continuous,2022.1.1,None,
19,0,19,0,4,0,4,0,,,,,,,,1.2234422597129138,frequency,198.0,8.188739030370584,0.000700105962937371,0,75,[],0.015439433336723596,None,['space'],821.9023962999927,821.9023962999927,0.22892703334218822,1.452369293055102,822.129360699997,821.9023962999927,[-2.1702819999773055],,,,,,,,regvnx,001,fr,0,2022-04-28_15h23.14.645,Continuous,2022.1.1,None,
19,0,19,0,5,0,5,0,,,,,,,,2.7067065682147864,frequency,157.0,6.876310146574454,0.000966319621542082,0,76,[],0.016216233314480633,None,['space'],823.3808536999859,823.3808536999859,0.22776003333274275,2.934466601547529,823.6023499000003,823.3808536999859,[-1.1051969999971334],,,,,,,,regvnx,001,fr,0,2022-04-28_15h23.14.645,Continuous,2022.1.1,None,
19,0,19,0,6,0,6,0,,,,,,,,2.6778333338427265,frequency,125.0,-2.0,0.0005740768107484417,0,77,[],0.015057233307743445,None,['space'],826.3367732999905,826.3367732999905,0.2083859333069995,2.886219267149726,826.5505326999992,826.3367732999905,[-0.030474300001515076],,,,,,,,regvnx,001,fr,0,2022-04-28_15h23.14.645,Continuous,2022.1.1,None,
19,0,19,0,7,0,7,0,,,,,,,,1.9527274324186572,frequency,,,,1,77,[],0.0016126666741911322,None,None,829.2703500000061,829.2703500000061,0.2055837666557636,2.158311199074421,829.4862577999884,829.2703500000061,,,,,,,,,regvnx,001,fr,0,2022-04-28_15h23.14.645,Continuous,2022.1.1,None,
20,0,20,0,0,0,0,0,,,,,0.3333333333333333,849.8547120000003,None,2.6565296005053267,both,1416.0,-0.07084670122531533,4.997866920099045e-05,0,71,[],0.012772066664183512,None,None,850.8780257999897,None,0.22349656667211093,2.8800261671774376,851.0920113000029,None,,831.4728037999885,None,,,,,,regvnx,001,fr,0,2022-04-28_15h23.14.645,Continuous,2022.1.1,None,
20,0,20,0,1,0,1,0,,,,,,,,2.6565296005053267,both,1124.0,-6.444359227996824,2.3447218181241748e-05,0,72,[],0.014328433317132294,None,None,853.7867755999905,853.7867755999905,0.2322898333077319,2.8888194338130586,854.0132709000027,853.7867755999905,,,,,,,,,regvnx,001,fr,0,2022-04-28_15h23.14.645,Continuous,2022.1.1,None,
20,0,20,0,2,0,2,0,,,,,,,,2.6565296005053267,both,892.0,-3.2347733637578675,2.823994533577641e-05,0,73,[],0.016396233346313238,None,['space'],856.6989157999924,856.6989157999924,0.2187117333523929,2.8752413338577196,856.9185097999871,856.6989157999924,[-0.40729750000173226],,,,,,,,regvnx,001,fr,0,2022-04-28_15h23.14.645,Continuous,2022.1.1,None,
20,0,20,0,3,0,3,0,,,,,,,,2.6565296005053267,both,708.0,1.547560320595947,5.2969153025262337e-05,0,74,[],0.014921233319910243,None,None,859.6061921000073,859.6061921000073,0.21056003333069384,2.8670896338360206,859.8223141999915,859.6061921000073,,,,,,,,,regvnx,001,fr,0,2022-04-28_15h23.14.645,Continuous,2022.1.1,None,
20,0,20,0,4,0,4,0,,,,,,,,2.6565296005053267,both,562.0,-0.42436289754014656,5.8827211509026904e-05,0,75,[],0.014830733329290524,None,None,862.5137104000023,862.5137104000023,0.21042223332915455,2.8669518338344813,862.7270953999832,862.5137104000023,,,,,,,,,regvnx,001,fr,0,2022-04-28_15h23.14.645,Continuous,2022.1.1,None,
20,0,20,0,5,0,5,0,,,,,,,,2.6565296005053267,both,446.0,-4.4292202094344635,4.456212091920552e-05,0,76,[],0.013036633346928284,None,None,865.4265247999865,865.4265247999865,0.22883583334623836,2.885365433851565,865.6548772999959,865.4265247999865,,,,,,,,,regvnx,001,fr,0,2022-04-28_15h23.14.645,Continuous,2022.1.1,None,
20,0,20,0,6,0,6,0,,,,,,,,2.6565296005053267,both,354.0,-7.0,3.952988376608492e-05,0,77,[],0.011408033344196156,None,['space'],868.3413302999979,868.3413302999979,0.2100181333371438,2.8665477338424705,868.5608075000055,868.3413302999979,[-1.1534389999869745],,,,,,,,regvnx,001,fr,0,2022-04-28_15h23.14.645,Continuous,2022.1.1,None,
20,0,20,0,7,0,7,0,,,,,,,,2.6565296005053267,both,,,,1,77,[],0.014831133303232491,None,['space'],871.2553227999888,871.2553227999888,0.21605103331967257,2.8725806338249993,871.4661339999875,871.2553227999888,[-0.7403550000162795],,,,,,,,regvnx,001,fr,0,2022-04-28_15h23.14.645,Continuous,2022.1.1,None,
20,0,20,0,8,0,8,0,,,,,,,,2.6565296005053267,both,223.0,5.836460514572975,0.0004315159781552358,0,78,[],0.015958633361151442,None,None,874.1596144000068,874.1596144000068,0.21709003334399313,2.87361963384932,874.3796050999954,874.1596144000068,,,,,,,,,regvnx,001,fr,0,2022-04-28_15h23.14.645,Continuous,2022.1.1,None,
20,0,20,0,9,0,9,0,,,,,,,,2.6565296005053267,both,177.0,-6.421001001971437,0.00016673768559847973,0,79,[],0.014799433352891356,None,['space'],877.0742933999863,877.0742933999863,0.2151542333594989,2.8716838338648256,877.2906236999843,877.0742933999863,[-1.7272176999831572],,,,,,,,regvnx,001,fr,0,2022-04-28_15h23.14.645,Continuous,2022.1.1,None,
20,0,20,0,10,0,10,0,,,,,,,,2.6565296005053267,both,140.0,4.289059717665372,0.0009653821095190781,0,80,[],0.014471433300059289,None,None,879.9828596999869,879.9828596999869,0.21407223329879344,2.87060183380412,880.198771299998,879.9828596999869,,,,,,,,,regvnx,001,fr,0,2022-04-28_15h23.14.645,Continuous,2022.1.1,None,
21,0,21,0,0,0,0,0,,,,,,888.7495896999899,None,1.1659631405140645,time,2894.0,9.22947026245292,0.00017771340020330149,0,66,[],0.01106256665661931,None,None,889.7698324999947,None,0.2125808666460216,1.378544007160086,889.9817565999983,None,,882.8943044999905,None,"[0.5833333333333334, 0.16666666666666666, 0.5833333333333334, 0.5833333333333334, 0.16666666666666666, 0.16666666666666666, 0.16666666666666666, 0.5833333333333334, 0.16666666666666666, 0.16666666666666666, 0.16666666666666666, 0.16666666666666666, 0.3333333333333333, 0.16666666666666666, 0.5833333333333334]",,,,,regvnx,001,fr,0,2022-04-28_15h23.14.645,Continuous,2022.1.1,None,
21,0,21,0,1,0,1,0,,,,,,,,1.1659631405140645,time,3248.0,1.785487469675017,8.688332911712128e-05,0,67,[],0.0028370333602651954,None,None,891.1864372999989,891.1864372999989,0.2026075333415065,1.368570673855571,891.4074673999858,891.1864372999989,,,,,,,,,regvnx,001,fr,0,2022-04-28_15h23.14.645,Continuous,2022.1.1,None,
21,0,21,0,2,0,2,0,,,,,,,,1.1659631405140645,time,645.0,4.591744488779236,8.457576459075145e-05,0,68,[],0.014664433314464986,None,None,892.6091051000112,892.6091051000112,0.21460843333625235,1.3805715738503168,892.826966099994,892.6091051000112,,,,,,,,,regvnx,001,fr,0,2022-04-28_15h23.14.645,Continuous,2022.1.1,None,
21,0,21,0,3,0,3,0,,,,,,,,1.1659631405140645,time,1084.0,-0.29124453311018994,4.599744335151379e-05,0,69,[],0.014014633314218372,None,None,894.0301791999955,894.0301791999955,0.20933123331633396,1.3752943738303984,894.2461051999999,894.0301791999955,,,,,,,,,regvnx,001,fr,0,2022-04-28_15h23.14.645,Continuous,2022.1.1,None,
21,0,21,0,4,0,4,0,,,,,,,,1.1659631405140645,time,1217.0,-0.18826955491707123,5.198973309608266e-05,0,70,[],0.014599933347199112,None,None,895.4481473999913,895.4481473999913,0.21916533334297128,1.3851284738570357,895.6728500000027,895.4481473999913,,,,,,,,,regvnx,001,fr,0,2022-04-28_15h23.14.645,Continuous,2022.1.1,None,
21,0,21,0,5,0,5,0,,,,,,,,1.1659631405140645,time,4092.0,6.660061653300127,0.00019433371755170532,0,71,[],0.010034233331680298,None,['space'],896.8723893999995,896.8723893999995,0.23097873333608732,1.3969418738501518,897.1040622,896.8723893999995,[-0.757903499994427],,,,,,,,regvnx,001,fr,0,2022-04-28_15h23.14.645,Continuous,2022.1.1,None,
21,0,21,0,6,0,6,0,,,,,,,,1.1659631405140645,time,4593.0,3.9801174292855377,0.00019725082471459,0,72,[],0.013771833357168362,None,None,898.299122299999,898.299122299999,0.21074523334391415,1.3767083738579786,898.514854899986,898.299122299999,,,,,,,,,regvnx,001,fr,0,2022-04-28_15h23.14.645,Continuous,2022.1.1,None,
21,0,21,0,7,0,7,0,,,,,,,,1.1659631405140645,time,,,,1,72,[],0.014544333331286907,None,None,899.7189192000078,899.7189192000078,0.21953493333421648,1.385498073848281,899.9483750000072,899.7189192000078,,,,,,,,,regvnx,001,fr,0,2022-04-28_15h23.14.645,Continuous,2022.1.1,None,
21,0,21,0,8,0,8,0,,,,,,,,1.1659631405140645,time,383.0,1.4940033774656811,9.616390929249959e-05,0,73,[],0.015850133320782334,None,None,901.1376922999916,901.1376922999916,0.21492783332359977,1.3808909738376642,901.355867700011,901.1376922999916,,,,,,,,,regvnx,001,fr,0,2022-04-28_15h23.14.645,Continuous,2022.1.1,None,
21,0,21,0,9,0,9,0,,,,,,,,1.1659631405140645,time,430.0,7.059810163302771,0.00016911264451146917,0,74,[],0.01125483334180899,None,None,902.5601746999891,902.5601746999891,0.23362323333276436,1.3995863738468288,902.7924710999941,902.5601746999891,,,,,,,,,regvnx,001,fr,0,2022-04-28_15h23.14.645,Continuous,2022.1.1,None,
21,0,21,0,10,0,10,0,,,,,,,,1.1659631405140645,time,2046.0,4.173105121150568,0.00012260403775293859,0,75,[],0.01422093331348151,None,['space'],903.9903915000032,903.9903915000032,0.2202575333067216,1.386220673820786,904.2137562999851,903.9903915000032,[-0.995096900005592],,,,,,,,regvnx,001,fr,0,2022-04-28_15h23.14.645,Continuous,2022.1.1,None,
21,0,21,0,11,0,11,0,,,,,,,,1.1659631405140645,time,2578.0,0.9923844852899819,9.08579514237633e-05,0,76,[],0.01309623330598697,None,None,905.4109698999964,905.4109698999964,0.20948383331415243,1.375446973828217,905.6261853000033,905.4109698999964,,,,,,,,,regvnx,001,fr,0,2022-04-28_15h23.14.645,Continuous,2022.1.1,None,
21,0,21,0,12,0,12,0,,,,,,,,1.1659631405140645,time,1366.0,0.5000476551078137,5.468885466000726e-05,0,77,[],0.010267233301419765,0.20969373331172392,['space'],906.8321487999929,906.8321487999929,0.20969373331172392,1.3756568738257884,907.0567008999933,906.8321487999929,[-0.8924239000189118],,,,,,,,regvnx,001,fr,0,2022-04-28_15h23.14.645,Continuous,2022.1.1,None,
21,0,21,0,13,0,13,0,,,,,,,,1.1659631405140645,time,2297.0,0.0,8.139546291729739e-05,0,78,[],0.014115533325821161,None,None,908.2543299999961,908.2543299999961,0.21055103332037106,1.3765141738344355,908.4688298999972,908.2543299999961,,,,,,,,,regvnx,001,fr,0,2022-04-28_15h23.14.645,Continuous,2022.1.1,None,
21,0,21,0,14,0,14,0,,,,,,,,1.1659631405140645,time,6882.0,-1.1823725556455704,0.00012885883167989613,0,79,[],0.013933333335444331,None,['space'],909.6718065000023,909.6718065000023,0.217318933311617,1.3832820738256815,909.8929483999964,909.6718065000023,[-0.6598803999950178],,,,,,,,regvnx,001,fr,0,2022-04-28_15h23.14.645,Continuous,2022.1.1,None,
22,0,22,0,0,0,0,0,,,,,0.3333333333333333,931.4811560999951,None,2.2171792805271346,frequency,499.0,5.970588023436118,0.00014217063359295775,0,78,[],0.012913766666315496,None,None,932.5304967999982,None,0.22940516666858457,2.446584447195719,932.7439599999925,None,,911.091099399986,None,,,,,,regvnx,001,fr,0,2022-04-28_15h23.14.645,Continuous,2022.1.1,None,
22,0,22,0,1,0,1,0,,,,,,,,2.048118303532968,frequency,396.0,5.812968224996666,0.0001515199735274247,0,79,[],0.0130933333421126,None,None,934.9911654999887,934.9911654999887,0.2057721333403606,2.253890436873329,935.2110525000026,934.9911654999887,,,,,,,,,regvnx,001,fr,0,2022-04-28_15h23.14.645,Continuous,2022.1.1,None,
22,0,22,0,2,0,2,0,,,,,,,,2.1276266541425137,frequency,314.0,-0.8239206293433909,9.065972047753923e-05,0,80,[],0.013449933292577043,0.21056093330844305,None,937.2925094999955,937.2925094999955,0.21056093330844305,2.338187587450957,937.5128719999921,937.2925094999955,,,,,,,,,regvnx,001,fr,0,2022-04-28_15h23.14.645,Continuous,2022.1.1,None,
22,0,22,0,3,0,3,0,,,,,,,,1.3603348396058432,frequency,249.0,2.428998648149154,0.00022411491998334786,0,81,[],0.014797633310081437,None,['space'],939.6698092999868,939.6698092999868,0.21485443331766874,1.575189272923512,939.8852787000069,939.6698092999868,[-2.0508305999974255],,,,,,,,regvnx,001,fr,0,2022-04-28_15h23.14.645,Continuous,2022.1.1,None,
22,0,22,0,4,0,4,0,,,,,,,,1.4130276506263455,frequency,198.0,8.815185402152895,0.0007524646381847936,0,82,[],0.009529533301247284,0.20179993330384605,None,941.2877271999896,941.2877271999896,0.20179993330384605,1.6148275839301915,941.4927848000079,941.2877271999896,,,,,,,,,regvnx,001,fr,0,2022-04-28_15h23.14.645,Continuous,2022.1.1,None,
22,0,22,0,5,0,5,0,,,,,,,,2.372335015023838,frequency,157.0,5.6097515495066945,0.0008352045821447253,0,83,[],0.013568133319495246,None,['space'],942.9441528999887,942.9441528999887,0.2364272333215922,2.60876224834543,943.1749232999864,942.9441528999887,[-1.2608717000111938],,,,,,,,regvnx,001,fr,0,2022-04-28_15h23.14.645,Continuous,2022.1.1,None,
22,0,22,0,6,0,6,0,,,,,,,,2.8658182310104943,frequency,125.0,-6.0,0.00036221798003749513,0,84,[],0.013109533349052072,None,['space'],945.5774123999872,945.5774123999872,0.20883443334605545,3.0746526643565497,945.7956159999885,945.5774123999872,[-0.5981388000072911],,,,,,,,regvnx,001,fr,0,2022-04-28_15h23.14.645,Continuous,2022.1.1,None,
22,0,22,0,7,0,7,0,,,,,,,,1.5227847513396016,frequency,,,,1,84,[],0.013481433328706771,None,None,948.6976109000097,948.6976109000097,0.20962253332254477,1.7324072846621463,948.915603100002,948.6976109000097,,,,,,,,,regvnx,001,fr,0,2022-04-28_15h23.14.645,Continuous,2022.1.1,None,
23,0,23,0,0,0,0,0,,,,,,956.018802400009,None,2.9851695678327967,none,,,,1,89,[],0.008533666637958959,0.201617966638878,['space'],957.0492042000114,None,0.201617966638878,3.1867875344716747,957.2622368999873,None,[-0.8541828000161331],950.4712121000048,None,"[0.16666666666666666, 0.5833333333333334, 0.5833333333333334, 0.16666666666666666, 0.3333333333333333, 0.16666666666666666, 0.5833333333333334, 0.3333333333333333, 0.3333333333333333, 0.5833333333333334, 0.3333333333333333, 0.5833333333333334, 0.5833333333333334, 0.5833333333333334, 0.16666666666666666]",,,,,regvnx,001,fr,0,2022-04-28_15h23.14.645,Continuous,2022.1.1,None,
23,0,23,0,1,0,1,0,,,,,,,,1.3308178877770949,none,3732.0,18.0,0.0006293915471090753,0,90,[],0.015805033326614648,None,None,960.2741398999933,960.2741398999933,0.2144433333305642,1.545261221107659,960.4910350999853,960.2741398999933,,,,,,,,,regvnx,001,fr,0,2022-04-28_15h23.14.645,Continuous,2022.1.1,None,
23,0,23,0,2,0,2,0,,,,,,,,1.7581210211085734,none,5592.0,4.648035315377115,0.00022355895933739815,0,91,[],0.01043693331303075,None,['space'],961.8680211000028,961.8680211000028,0.2052882333227899,1.9634092544313633,962.08057369999,961.8680211000028,[-1.1287796999968123],,,,,,,,regvnx,001,fr,0,2022-04-28_15h23.14.645,Continuous,2022.1.1,None,
23,0,23,0,3,0,3,0,,,,,,,,2.6463718975998693,none,2962.0,11.62162800734322,0.00021795465169471192,0,92,[],0.0150107333320193,None,None,963.8783703999943,963.8783703999943,0.21239603334106505,2.8587679309409344,964.0908807000087,963.8783703999943,,,,,,,,,regvnx,001,fr,0,2022-04-28_15h23.14.645,Continuous,2022.1.1,None,
23,0,23,0,4,0,4,0,,,,,,,,1.8426903874225071,none,1569.0,9.06196101847599,0.00015365596004595275,0,93,[],0.012628533324459568,None,None,966.7761406000063,966.7761406000063,0.23457153330673464,2.0772619207292418,967.0083921999903,966.7761406000063,,,,,,,,,regvnx,001,fr,0,2022-04-28_15h23.14.645,Continuous,2022.1.1,None,
23,0,23,0,5,0,5,0,,,,,,,,2.447056306400123,none,440.0,14.918113471902618,0.00041507174316751856,0,94,[],0.01630133335129358,None,['space'],968.883162699989,968.883162699989,0.21646043335204013,2.663516739752163,969.0907643999963,968.883162699989,[-1.6325841000070795],,,,,,,,regvnx,001,fr,0,2022-04-28_15h23.14.645,Continuous,2022.1.1,None,
23,0,23,0,6,0,6,0,,,,,,,,1.7382880134848246,none,7045.0,17.235329841596794,0.0011099273804717094,0,95,[],0.012902033311547711,None,"['space', 'space']",971.5771648999944,971.5771648999944,0.20646653333096765,1.9447545468157923,971.7912820999918,971.5771648999944,"[-2.326837100001285, -0.2131359000049997]",,,,,,,,regvnx,001,fr,0,2022-04-28_15h23.14.645,Continuous,2022.1.1,None,
23,0,23,0,7,0,7,0,,,,,,,,2.162567829086921,none,1110.0,17.181623638996466,0.0003517180206973791,0,96,[],0.012437933328328654,None,['space'],973.5676472999912,973.5676472999912,0.21422993333544582,2.376797762422367,973.7872294000117,973.5676472999912,[-1.2446053999883588],,,,,,,,regvnx,001,fr,0,2022-04-28_15h23.14.645,Continuous,2022.1.1,None,
23,0,23,0,8,0,8,0,,,,,,,,2.8770056809372124,none,1398.0,17.665399129060116,0.0003885363632842058,0,97,[],0.013303933315910399,None,['space'],975.9786010000098,975.9786010000098,0.23499763332074508,3.1120033142579575,976.2093980000063,975.9786010000098,[-1.4484168000053614],,,,,,,,regvnx,001,fr,0,2022-04-28_15h23.14.645,Continuous,2022.1.1,None,
23,0,23,0,9,0,9,0,,,,,,,,2.2331356196404384,none,660.0,9.18997124715538,0.00013981168599386967,0,98,[],0.013259633356938139,None,"['space', 'space']",979.1164722999965,979.1164722999965,0.20925683333189227,2.4423924529723307,979.332284300006,979.1164722999965,"[-2.793082099989988, -0.42525020000175573]",,,,,,,,regvnx,001,fr,0,2022-04-28_15h23.14.645,Continuous,2022.1.1,None,
23,0,23,0,10,0,10,0,,,,,,,,2.972088290803991,none,2351.0,17.531529823050192,0.0006216086945230919,0,99,[],0.013239433319540694,None,['space'],981.6037608000042,981.6037608000042,0.21042103332001716,3.182509324124008,981.823200999992,981.6037608000042,[-0.0485560999950394],,,,,,,,regvnx,001,fr,0,2022-04-28_15h23.14.645,Continuous,2022.1.1,None,
24,0,24,0,0,0,0,0,,,,,0.5833333333333334,1010.7591264999937,None,1.2351655597169395,frequency,1411.0,-6.1139168431289805,2.4986174783559466e-05,0,85,[],0.012907566648209468,None,None,1011.7814499000087,None,0.23269896666170098,1.4678645263786405,1012.0061085000052,None,,984.8335977999959,None,,,,,,regvnx,001,fr,0,2022-04-28_15h23.14.645,Continuous,2022.1.1,None,
24,0,24,0,1,0,1,0,,,,,,,,1.811329894299275,frequency,942.0,-7.908031827517188,1.7061020101980896e-05,0,86,[],0.013029333349550143,None,None,1013.2672562999942,1013.2672562999942,0.23353323334595188,2.044863127645227,1013.4973795999831,1013.2672562999942,,,,,,,,,regvnx,001,fr,0,2022-04-28_15h23.14.645,Continuous,2022.1.1,None,
24,0,24,0,2,0,2,0,,,,,,,,2.0341326990402417,frequency,629.0,-6.913611302950642,2.3153229840967432e-05,0,87,[],0.012126333313062787,None,None,1015.3419615000021,1015.3419615000021,0.20808153331745416,2.242214232357696,1015.5574697999982,1015.3419615000021,,,,,,,,,regvnx,001,fr,0,2022-04-28_15h23.14.645,Continuous,2022.1.1,None,
24,0,24,0,3,0,3,0,,,,,,,,2.1708507868671476,frequency,420.0,-9.38933834237795,2.5625160018181054e-05,0,88,[],0.01210663330857642,None,['space'],1017.6299476999848,1017.6299476999848,0.21178933331975713,2.3826401201869047,1017.8477436999965,1017.6299476999848,[-1.4347296000050846],,,,,,,,regvnx,001,fr,0,2022-04-28_15h23.14.645,Continuous,2022.1.1,None,
24,0,24,0,4,0,4,0,,,,,,,,1.413665607104066,frequency,280.0,-1.3562807834577058,0.00011608263309263979,0,89,[],0.012783533311448991,None,None,1020.0590688000084,1020.0590688000084,0.21292633330449462,1.6265919404085607,1020.2757989999955,1020.0590688000084,,,,,,,,,regvnx,001,fr,0,2022-04-28_15h23.14.645,Continuous,2022.1.1,None,
24,0,24,0,5,0,5,0,,,,,,,,2.120200152412326,frequency,187.0,6.47552931852778,0.0006592140463961803,0,90,[],0.010559233312960714,None,None,1021.732542999991,1021.732542999991,0.20892643331899308,2.329126585731319,1021.9466231999977,1021.732542999991,,,,,,,,,regvnx,001,fr,0,2022-04-28_15h23.14.645,Continuous,2022.1.1,None,
24,0,24,0,6,0,6,0,,,,,,,,1.694878630281127,frequency,125.0,-12.0,0.0001815390273850507,0,91,[],0.014645233313785866,None,['space'],1024.1088177000056,1024.1088177000056,0.21681693333084695,1.911695563611974,1024.3294760999852,1024.1088177000056,[-1.6412406000017654],,,,,,,,regvnx,001,fr,0,2022-04-28_15h23.14.645,Continuous,2022.1.1,None,
24,0,24,0,7,0,7,0,,,,,,,,2.238943379284937,frequency,,,,1,91,[],0.012122433312470093,None,None,1026.0635400000028,1026.0635400000028,0.2175517333089374,2.4564951125938745,1026.2770826999913,1026.0635400000028,,,,,,,,,regvnx,001,fr,0,2022-04-28_15h23.14.645,Continuous,2022.1.1,None,
25,0,25,0,0,0,0,0,,,,,0.5833333333333334,1042.5464659999998,None,2.281092035447025,both,3731.0,10.053513948182633,0.00025205793725726803,0,81,[],0.012908166652778164,None,None,1043.5905904000101,None,0.23053406664985232,2.5116261020968773,1043.80889819999,None,,1028.5513572999917,None,,,,,,regvnx,001,fr,0,2022-04-28_15h23.14.645,Continuous,2022.1.1,None,
25,0,25,0,1,0,1,0,,,,,,,,2.281092035447025,both,2490.0,2.302587702685204,0.00011168044730420438,0,82,[],0.012319733359618112,None,"['space', 'space']",1046.1189751999918,1046.1189751999918,0.23236263333819807,2.513454668785223,1046.3484438000014,1046.1189751999918,"[-1.8128506999928504, 0.10849899999448098]",,,,,,,,regvnx,001,fr,0,2022-04-28_15h23.14.645,Continuous,2022.1.1,None,
25,0,25,0,2,0,2,0,,,,,,,,2.281092035447025,both,1662.0,-8.039939436835189,2.3598534677117438e-05,0,83,[],0.011679433315293863,None,['space'],1048.6609488000104,1048.6609488000104,0.20612913332297467,2.4872211687699997,1048.8755320000055,1048.6609488000104,[-0.5772303999983706],,,,,,,,regvnx,001,fr,0,2022-04-28_15h23.14.645,Continuous,2022.1.1,None,
25,0,25,0,3,0,3,0,,,,,,,,2.281092035447025,both,1109.0,-7.462371529951445,2.0588340420133892e-05,0,84,[],0.004963033337844536,None,['space'],1051.200877700001,1051.200877700001,0.21415523331961595,2.495247268766641,1051.4219334000081,1051.200877700001,[-1.277606099989498],,,,,,,,regvnx,001,fr,0,2022-04-28_15h23.14.645,Continuous,2022.1.1,None,
25,0,25,0,4,0,4,0,,,,,,,,2.281092035447025,both,,,,1,84,[],0.012444133346434683,None,"['space', 'space']",1053.745513700007,1053.745513700007,0.21130443332367577,2.4923964687707008,1053.9636400000018,1053.745513700007,"[-1.9182921999890823, 0.001792299997759983]",,,,,,,,regvnx,001,fr,0,2022-04-28_15h23.14.645,Continuous,2022.1.1,None,
25,0,25,0,5,0,5,0,,,,,,,,2.281092035447025,both,494.0,2.395015892777973,9.453234650607657e-05,0,85,[],0.013462833303492516,None,['space'],1056.283514699986,1056.283514699986,0.21301393330213614,2.494105968749161,1056.5031863999902,1056.283514699986,[-0.7285354000050575],,,,,,,,regvnx,001,fr,0,2022-04-28_15h23.14.645,Continuous,2022.1.1,None,
25,0,25,0,6,0,6,0,,,,,,,,2.281092035447025,both,330.0,-9.0,3.36104086426739e-05,0,86,[],0.011470733326859772,None,['space'],1058.8243854999891,1058.8243854999891,0.21099803331890143,2.4920900687659264,1059.0445684999868,1058.8243854999891,[-1.4455013000115287],,,,,,,,regvnx,001,fr,0,2022-04-28_15h23.14.645,Continuous,2022.1.1,None,
25,0,25,0,7,0,7,0,,,,,,,,2.281092035447025,both,220.0,4.160412207243424,0.0003652795528598022,0,87,[],0.011367133294697851,None,"['space', 'space']",1061.3670548000082,1061.3670548000082,0.22136023329221644,2.5024522687392414,1061.5908259999997,1061.3670548000082,"[-2.0996814999962226, -0.2599507000122685]",,,,,,,,regvnx,001,fr,0,2022-04-28_15h23.14.645,Continuous,2022.1.1,None,
25,0,25,0,8,0,8,0,,,,,,,,2.281092035447025,both,147.0,-1.8672061650164196,0.00042494548135217565,0,88,[],0.011736133339582011,None,['space'],1063.9076122000115,1063.9076122000115,0.22124233335489407,2.502334368801919,1064.13103270001,1063.9076122000115,[-1.7765936999931],,,,,,,,regvnx,001,fr,0,2022-04-28_15h23.14.645,Continuous,2022.1.1,None,
26,0,26,0,0,0,0,0,,,,,,1069.7105173000018,None,1.2740464285960196,none,,,,1,99,[],0.013223666668636724,None,None,1070.7332790000073,None,0.21471506665693596,1.4887614952529555,1070.9463679000037,None,,1066.4463952000078,None,"[0.16666666666666666, 0.3333333333333333, 0.3333333333333333, 0.3333333333333333, 0.16666666666666666, 0.3333333333333333, 0.16666666666666666, 0.3333333333333333, 0.16666666666666666, 0.3333333333333333, 0.3333333333333333, 0.16666666666666666, 0.5833333333333334, 0.3333333333333333, 0.3333333333333333]",,,,,regvnx,001,fr,0,2022-04-28_15h23.14.645,Continuous,2022.1.1,None,
26,0,26,0,1,0,1,0,,,,,,,,2.294617836233575,none,1782.0,4.552968714497609,0.00010973638430368682,0,100,[],0.015774833329487592,None,None,1072.2583124999946,1072.2583124999946,0.21398033332661726,2.508598169560192,1072.4698649999918,1072.2583124999946,,,,,,,,,regvnx,001,fr,0,2022-04-28_15h23.14.645,Continuous,2022.1.1,None,
26,0,26,0,2,0,2,0,,,,,,,,2.268797604551127,none,8000.0,4.0,0.0002877199686685786,0,101,[],0.01200453331694007,0.2064802333188709,['space'],1074.8047407999984,1074.8047407999984,0.2064802333188709,2.475277837869998,1075.0163519000052,1074.8047407999984,[-1.6660011999774724],,,,,,,,regvnx,001,fr,0,2022-04-28_15h23.14.645,Continuous,2022.1.1,None,
26,0,26,0,3,0,3,0,,,,,,,,2.137587376798811,none,5040.0,5.216515479609091,0.0002757918700875864,0,102,[],0.011273133335635066,None,['space'],1077.322908800008,1077.322908800008,0.23439683331525885,2.37198421011407,1077.5547862999956,1077.322908800008,[-2.0723958000016864],,,,,,,,regvnx,001,fr,0,2022-04-28_15h23.14.645,Continuous,2022.1.1,None,
26,0,26,0,4,0,4,0,,,,,,,,2.672001660878257,none,4000.0,10.04326927645965,0.00026676783742596354,0,103,[],0.01187393331201747,0.2094590333290398,['space'],1079.7243220999953,1079.7243220999953,0.2094590333290398,2.8814606942072967,1079.9365004999854,1079.7243220999953,[-1.6892826999828685],,,,,,,,regvnx,001,fr,0,2022-04-28_15h23.14.645,Continuous,2022.1.1,None,
26,0,26,0,5,0,5,0,,,,,,,,2.8248242197758904,none,3564.0,4.4680149166243,0.00012759952953434435,0,104,[],0.011380133306374773,0.20529583332245238,['space'],1082.6450403000053,1082.6450403000053,0.20529583332245238,3.0301200530983428,1082.8583708000078,1082.6450403000053,[-2.0660919999936596],,,,,,,,regvnx,001,fr,0,2022-04-28_15h23.14.645,Continuous,2022.1.1,None,
26,0,26,0,6,0,6,0,,,,,,,,2.3263945488249034,none,2829.0,9.830530844972092,0.00020297316425417155,0,105,[],0.01151243332424201,None,['space'],1085.7176542000088,1085.7176542000088,0.20369313331320882,2.530087682138112,1085.9305599000072,1085.7176542000088,[-2.434848200005945],,,,,,,,regvnx,001,fr,0,2022-04-28_15h23.14.645,Continuous,2022.1.1,None,
26,0,26,0,7,0,7,0,,,,,,,,2.1856701831521606,none,7127.0,0.8010831782135273,0.00017005900738334097,0,106,[],0.01189923333004117,None,None,1088.296347399999,1088.296347399999,0.20610393333481625,2.391774116486977,1088.5097147999913,1088.296347399999,,,,,,,,,regvnx,001,fr,0,2022-04-28_15h23.14.645,Continuous,2022.1.1,None,
26,0,26,0,8,0,8,0,,,,,,,,2.1783685363605767,none,2245.0,5.042216026157961,0.0001433892802969793,0,107,[],0.01158213330199942,None,['space'],1090.7374808999884,1090.7374808999884,0.20630613330285996,2.3846746696634367,1090.9505910000007,1090.7374808999884,[-1.887082700006431],,,,,,,,regvnx,001,fr,0,2022-04-28_15h23.14.645,Continuous,2022.1.1,None,
