sweeps.thisRepN,sweeps.thisTrialN,sweeps.thisN,sweeps.thisIndex,trials.thisRepN,trials.thisTrialN,trials.thisN,trials.thisIndex,instructions.started,instructions.stopped,blank_text.started,blank_text.stopped,,text.started,text.stopped,Delay,Prediction,Frequency,Volume,Psychopy_level,isCatchTrial,len(y),finished_audiograms,probe.started,probe.stopped,feedback.keys,feedback.started,feedback.stopped,ISI.started,ISI.stopped,text_2.started,text_2.stopped,feedback.rt,break_txt.started,break_txt.stopped,Intervals,Audiogram_frequency,Audiogram_time,Audiogram_both,Audiogram_none,end_txt.started,end_txt.stopped,participant,session,language (english or french),Resume previous experiment,date,expName,psychopyVersion,frameRate,
0,0,0,0,0,0,0,0,29.025379300117493,None,91.74330580001697,None,0.16666666666666666,93.69981699995697,None,2.9140082575293724,both,708.0,-1.03551849648358,3.934314629705547e-05,0,23,[],0.011869666632264853,None,None,94.7527689000126,None,0.2152588665485382,3.1292671240779106,94.95918040000834,None,,,,,,,,,,,nunamh,001,fr,0,2022-05-17_10h36.21.712,Continuous,2022.1.1,36.284391215067195,
0,0,0,0,1,0,1,0,,,,,,,,2.9140082575293724,both,631.0,-1.3440538672012166,4.375445930496542e-05,0,24,[],0.011393466731533408,None,None,97.87210620008409,97.87210620008409,0.20990656688809395,3.1239148244174664,98.08518910012208,97.87210620008409,,,,,,,,,,,nunamh,001,fr,0,2022-05-17_10h36.21.712,Continuous,2022.1.1,36.284391215067195,
0,0,0,0,2,0,2,0,,,,,,,,2.9140082575293724,both,562.0,-1.563976891791369,5.1593805605371385e-05,0,25,[],0.011824666755273938,None,None,100.99308919999748,100.99308919999748,0.21031436673365533,3.1243226242630278,101.20830660010688,100.99308919999748,,,,,,,,,,,nunamh,001,fr,0,2022-05-17_10h36.21.712,Continuous,2022.1.1,36.284391215067195,
0,0,0,0,3,0,3,0,,,,,,,,2.9140082575293724,both,501.0,-0.57967985868342,6.668631004865666e-05,0,26,[],0.01148366671986878,0.20761026651598513,None,104.1111759999767,104.1111759999767,0.20761026651598513,3.1216185240453576,104.32469990011305,104.1111759999767,,,,,,,,,,,nunamh,001,fr,0,2022-05-17_10h36.21.712,Continuous,2022.1.1,36.284391215067195,
0,0,0,0,4,0,4,0,,,,,,,,2.9140082575293724,both,446.0,1.1523228508621388,8.473113145242503e-05,0,27,[],0.011918166652321815,None,None,107.23168190009892,107.23168190009892,0.21212396677583456,3.126132224305207,107.44479410001077,107.23168190009892,,,,,,,,,,,nunamh,001,fr,0,2022-05-17_10h36.21.712,Continuous,2022.1.1,36.284391215067195,
0,0,0,0,5,0,5,0,,,,,,,,2.9140082575293724,both,397.0,3.143935806060897,0.00011106130491465648,0,28,[],0.010852866806089878,0.20518946670927107,None,110.35952270007692,110.35952270007692,0.20518946670927107,3.1191977242386435,110.56483940011822,110.35952270007692,,,,,,,,,,,nunamh,001,fr,0,2022-05-17_10h36.21.712,Continuous,2022.1.1,36.284391215067195,
0,0,0,0,6,0,6,0,,,,,,,,2.9140082575293724,both,354.0,-2.0,7.02951783824607e-05,0,29,[],0.011041966499760747,None,['space'],113.47891529998742,113.47891529998742,0.20817316649481654,3.122181424024189,113.69105829996988,113.47891529998742,[-2.810778300045058],,,,,,,,,,nunamh,001,fr,0,2022-05-17_10h36.21.712,Continuous,2022.1.1,36.284391215067195,
0,0,0,0,7,0,7,0,,,,,,,,2.9140082575293724,both,315.0,-0.9033774414777991,8.887940370833074e-05,0,30,[],0.010369066847488284,0.2062920667231083,"['space', 'space']",116.59923910000362,116.59923910000362,0.2062920667231083,3.1203003242524807,116.80476570012979,116.59923910000362,"[-2.795319000026211, 0.028683300130069256]",,,,,,,,,,nunamh,001,fr,0,2022-05-17_10h36.21.712,Continuous,2022.1.1,36.284391215067195,
0,0,0,0,8,0,8,0,,,,,,,,2.9140082575293724,both,281.0,4.206039646803379,0.0002185140896336,0,31,[],0.010469566565006971,0.2059591666329652,None,119.71934880013578,119.71934880013578,0.2059591666329652,3.1199674241623376,119.93072709999979,119.71934880013578,,,,,,,,,,,nunamh,001,fr,0,2022-05-17_10h36.21.712,Continuous,2022.1.1,36.284391215067195,
0,0,0,0,9,0,9,0,,,,,,,,2.9140082575293724,both,250.0,3.9516589567646023,0.00026396901519485413,0,32,[],0.011016166536137462,None,"['space', 'space']",122.84013190004043,122.84013190004043,0.21094056661240757,3.12494882414178,123.05689040012658,122.84013190004043,"[-2.8193353000096977, -0.05867969989776611]",,,,,,,,,,nunamh,001,fr,0,2022-05-17_10h36.21.712,Continuous,2022.1.1,36.284391215067195,
0,0,0,0,10,0,10,0,,,,,,,,2.9140082575293724,both,223.0,4.433983922482815,0.0003671749562384212,0,33,[],0.011419466463848948,None,['space'],125.97068689996377,125.97068689996377,0.21133876638486981,3.1253470239142422,126.18414840009063,125.97068689996377,[-0.15769500005990267],,,,,,,,,,nunamh,001,fr,0,2022-05-17_10h36.21.712,Continuous,2022.1.1,36.284391215067195,
0,0,0,0,11,0,11,0,,,,,,,,2.9140082575293724,both,199.0,-0.9634016464486885,0.0002408341752425402,0,34,[],0.003969566663727164,0.19278276665136218,['space'],129.101722399937,129.101722399937,0.19278276665136218,3.1067910241807346,129.3106096999254,129.101722399937,[-0.07348009990528226],,,,,,,,,,nunamh,001,fr,0,2022-05-17_10h36.21.712,Continuous,2022.1.1,36.284391215067195,
0,0,0,0,12,0,12,0,,,,,,,,2.9140082575293724,both,,,,1,34,[],0.004505866672843695,None,['space'],132.22153400001116,132.22153400001116,0.19802906666882336,3.112037324198196,132.43681990006007,132.22153400001116,[-0.007532800082117319],,,,,,,,,,nunamh,001,fr,0,2022-05-17_10h36.21.712,Continuous,2022.1.1,36.284391215067195,
0,0,0,0,13,0,13,0,,,,,,,,2.9140082575293724,both,158.0,2.978580981074879,0.000604383209328024,0,35,[],0.01270696660503745,None,None,135.34709860011935,135.34709860011935,0.2132789664901793,3.1272872240195517,135.55269029992633,135.34709860011935,,,,,,,,,,,nunamh,001,fr,0,2022-05-17_10h36.21.712,Continuous,2022.1.1,36.284391215067195,
0,0,0,0,14,0,14,0,,,,,,,,2.9140082575293724,both,141.0,0.4113310895666942,0.0006084155242022484,0,36,[],0.01134406658820808,None,['space'],138.47031820006669,138.47031820006669,0.21101896674372256,3.125027224273095,138.6848794000689,138.47031820006669,[0.19029000005684793],,,,,,,,,,nunamh,001,fr,0,2022-05-17_10h36.21.712,Continuous,2022.1.1,36.284391215067195,
1,0,1,0,0,0,0,0,,,,,,142.7224646001123,None,2.206451851806861,time,,,,1,22,[],0.01332186651416123,None,None,143.7562051001005,None,0.21821506647393107,2.424666918280792,143.96297709993087,None,,141.60144230001606,None,"[0.16666666666666666, 0.5833333333333334, 0.5833333333333334, 0.5833333333333334, 0.3333333333333333, 0.3333333333333333, 0.5833333333333334, 0.16666666666666666, 0.16666666666666666, 0.5833333333333334, 0.16666666666666666, 0.16666666666666666, 0.3333333333333333, 0.3333333333333333, 0.5833333333333334]",,,,,,,nunamh,001,fr,0,2022-05-17_10h36.21.712,Continuous,2022.1.1,36.284391215067195,
1,0,1,0,1,0,1,0,,,,,,,,2.206451851806861,time,1061.0,-0.7853605657537077,4.257495687257499e-05,0,23,[],0.012197366682812572,None,None,146.1711502999533,146.1711502999533,0.2145847666542977,2.4210366184611587,146.3859977000393,146.1711502999533,,,,,,,,,,,nunamh,001,fr,0,2022-05-17_10h36.21.712,Continuous,2022.1.1,36.284391215067195,
1,0,1,0,2,0,2,0,,,,,,,,2.206451851806861,time,842.0,-1.1219390217246437,3.476794357403001e-05,0,24,[],0.010818866780027747,None,['space'],148.59290349995717,148.59290349995717,0.21141126658767462,2.4178631183945356,148.8037803999614,148.59290349995717,[-1.9327093998435885],,,,,,,,,,nunamh,001,fr,0,2022-05-17_10h36.21.712,Continuous,2022.1.1,36.284391215067195,
1,0,1,0,3,0,3,0,,,,,,,,2.206451851806861,time,315.0,-0.49612321265987447,9.314592152826081e-05,0,25,[],0.010878066532313824,None,None,151.01236760010943,151.01236760010943,0.21006636647507548,2.4165182182819365,151.2339971999172,151.01236760010943,,,,,,,,,,,nunamh,001,fr,0,2022-05-17_10h36.21.712,Continuous,2022.1.1,36.284391215067195,
1,0,1,0,4,0,4,0,,,,,,,,2.206451851806861,time,149.0,4.575732513309802,0.0008620828999334489,0,26,[],0.011107466649264097,None,None,153.4325383999385,153.4325383999385,0.2122727665118873,2.4187246183187483,153.64450359996408,153.4325383999385,,,,,,,,,,,nunamh,001,fr,0,2022-05-17_10h36.21.712,Continuous,2022.1.1,36.284391215067195,
1,0,1,0,5,0,5,0,,,,,,,,2.206451851806861,time,595.0,0.27868922336292246,5.847094172740586e-05,0,27,[],0.011094766668975353,None,None,155.85163870011456,155.85163870011456,0.20967116649262607,2.416123018299487,156.07114679994993,155.85163870011456,,,,,,,,,,,nunamh,001,fr,0,2022-05-17_10h36.21.712,Continuous,2022.1.1,36.284391215067195,
1,0,1,0,6,0,6,0,,,,,,,,2.206451851806861,time,668.0,-0.57753163627786,4.4755346960788714e-05,0,28,[],0.01093196659348905,None,None,158.26753880013712,158.26753880013712,0.20969056664034724,2.4161424184472082,158.48152499995194,158.26753880013712,,,,,,,,,,,nunamh,001,fr,0,2022-05-17_10h36.21.712,Continuous,2022.1.1,36.284391215067195,
1,0,1,0,7,0,7,0,,,,,,,,2.206451851806861,time,354.0,-2.0,7.02951783824607e-05,0,29,[],0.010932666482403874,None,None,160.6886058000382,160.6886058000382,0.21162596647627652,2.4180778182831375,160.9107727999799,160.6886058000382,,,,,,,,,,,nunamh,001,fr,0,2022-05-17_10h36.21.712,Continuous,2022.1.1,36.284391215067195,
1,0,1,0,8,0,8,0,,,,,,,,2.206451851806861,time,530.0,-1.7825046073389617,5.4377794046033554e-05,0,30,[],0.010839366586878896,None,None,163.10859790001996,163.10859790001996,0.20838416670449078,2.4148360185113518,163.32087359996513,163.10859790001996,,,,,,,,,,,nunamh,001,fr,0,2022-05-17_10h36.21.712,Continuous,2022.1.1,36.284391215067195,
1,0,1,0,9,0,9,0,,,,,,,,2.206451851806861,time,1590.0,2.488245616046829,7.445068360028979e-05,0,31,[],0.010564966592937708,None,None,165.52918820013292,165.52918820013292,0.20996426651254296,2.416416118319404,165.75062160007656,165.52918820013292,,,,,,,,,,,nunamh,001,fr,0,2022-05-17_10h36.21.712,Continuous,2022.1.1,36.284391215067195,
1,0,1,0,10,0,10,0,,,,,,,,2.206451851806861,time,281.0,4.7942778524188405,0.00023382522207633885,0,32,[],0.009527966612949967,None,None,167.95254399999976,167.95254399999976,0.20851786644198,2.414969718248841,168.16099420003593,167.95254399999976,,,,,,,,,,,nunamh,001,fr,0,2022-05-17_10h36.21.712,Continuous,2022.1.1,36.284391215067195,
2,0,2,0,0,0,0,0,,,,,0.5833333333333334,179.23635030002333,None,2.2849639380139424,both,5657.0,-22.0,1.020857233789186e-05,0,37,[],0.013108966639265418,None,None,180.25096100009978,None,0.2158916664775461,2.5008556044914885,180.46534510003403,None,,170.36629740009084,None,,,,,,,,nunamh,001,fr,0,2022-05-17_10h36.21.712,Continuous,2022.1.1,36.284391215067195,
2,0,2,0,1,0,1,0,,,,,,,,2.2849639380139424,both,3776.0,-18.373774527106463,9.648174106395413e-06,0,38,[],0.010352866491302848,None,None,182.7464410001412,182.7464410001412,0.2112079665530473,2.4961719045669897,182.96135320002213,182.7464410001412,,,,,,,,,,,nunamh,001,fr,0,2022-05-17_10h36.21.712,Continuous,2022.1.1,36.284391215067195,
2,0,2,0,2,0,2,0,,,,,,,,2.2849639380139424,both,2520.0,-21.993137580194052,6.729506423240261e-06,0,39,[],0.01035606674849987,None,None,185.24779179994948,185.24779179994948,0.209375366801396,2.4943393048153384,185.4693616000004,185.24779179994948,,,,,,,,,,,nunamh,001,fr,0,2022-05-17_10h36.21.712,Continuous,2022.1.1,36.284391215067195,
2,0,2,0,3,0,3,0,,,,,,,,2.2849639380139424,both,1682.0,-16.281244303165344,9.275905764525139e-06,0,40,[],0.01055286661721766,None,None,187.7468793001026,187.7468793001026,0.20945356669835746,2.4944175047123,187.9606216000393,187.7468793001026,,,,,,,,,,,nunamh,001,fr,0,2022-05-17_10h36.21.712,Continuous,2022.1.1,36.284391215067195,
2,0,2,0,4,0,4,0,,,,,,,,2.2849639380139424,both,1123.0,1.1202605297615675,5.596973298952618e-05,0,41,[],0.0041027667466551065,0.19895266671665013,None,190.2477768000681,190.2477768000681,0.19895266671665013,2.4839166047305925,190.46434150007553,190.2477768000681,,,,,,,,,,,nunamh,001,fr,0,2022-05-17_10h36.21.712,Continuous,2022.1.1,36.284391215067195,
2,0,2,0,5,0,5,0,,,,,,,,2.2849639380139424,both,750.0,-21.691099143089673,3.3451457669089474e-06,0,42,[],0.008534566732123494,None,None,192.74604619992897,192.74604619992897,0.2034369665198028,2.488400904533745,192.9613838000223,192.74604619992897,,,,,,,,,,,nunamh,001,fr,0,2022-05-17_10h36.21.712,Continuous,2022.1.1,36.284391215067195,
2,0,2,0,6,0,6,0,,,,,,,,2.2849639380139424,both,501.0,-18.82003841688099,8.166176444364324e-06,0,43,[],0.010389166418462992,0.2047574664466083,None,195.2476347000338,195.2476347000338,0.2047574664466083,2.4897214044605507,195.4526394000277,195.2476347000338,,,,,,,,,,,nunamh,001,fr,0,2022-05-17_10h36.21.712,Continuous,2022.1.1,36.284391215067195,
2,0,2,0,7,0,7,0,,,,,,,,2.2849639380139424,both,334.0,-9.6979886850663,3.067518268602547e-05,0,44,[],0.0073080665897578,0.19796786666847765,None,197.73572789994068,197.73572789994068,0.19796786666847765,2.48293180468242,197.94528320012614,197.73572789994068,,,,,,,,,,,nunamh,001,fr,0,2022-05-17_10h36.21.712,Continuous,2022.1.1,36.284391215067195,
2,0,2,0,8,0,8,0,,,,,,,,2.2849639380139424,both,,,,1,44,[],0.010033466620370746,None,None,200.2315364999231,200.2315364999231,0.23084816662594676,2.515812104639889,200.45624780002981,200.2315364999231,,,,,,,,,,,nunamh,001,fr,0,2022-05-17_10h36.21.712,Continuous,2022.1.1,36.284391215067195,
3,0,3,0,0,0,0,0,,,,,0.16666666666666666,206.35670370003209,None,2.7239555233238675,frequency,708.0,-1.0353598812885016,3.934386475861374e-05,0,23,[],0.01292826677672565,None,None,207.39072220004164,None,0.23756086663343012,2.9615163899572976,207.61782249994576,None,,202.72914510010742,None,,,,,,,,nunamh,001,fr,0,2022-05-17_10h36.21.712,Continuous,2022.1.1,36.284391215067195,
3,0,3,0,1,0,1,0,,,,,,,,1.949652782074146,frequency,631.0,-1.8386287334417188,4.133268117801963e-05,0,24,[],0.00969806662760675,None,None,210.33289499999955,210.33289499999955,0.2252650666050613,2.1749178486792076,210.55441320012324,210.33289499999955,,,,,,,,,,,nunamh,001,fr,0,2022-05-17_10h36.21.712,Continuous,2022.1.1,36.284391215067195,
3,0,3,0,2,0,2,0,,,,,,,,2.395599971200247,frequency,562.0,-0.9836936511276058,5.5158408267099526e-05,0,25,[],0.009968766709789634,None,None,212.49564129998907,212.49564129998907,0.22740376670844853,2.6230037379086957,212.71908419998363,212.49564129998907,,,,,,,,,,,nunamh,001,fr,0,2022-05-17_10h36.21.712,Continuous,2022.1.1,36.284391215067195,
3,0,3,0,3,0,3,0,,,,,,,,1.0627608878810593,frequency,501.0,2.114684738767129,9.093999314957541e-05,0,26,[],0.002282166387885809,None,None,215.11167489993386,215.11167489993386,0.21076826634816825,1.2735291542292275,215.33911709999666,215.11167489993386,,,,,,,,,,,nunamh,001,fr,0,2022-05-17_10h36.21.712,Continuous,2022.1.1,36.284391215067195,
3,0,3,0,4,0,4,0,,,,,,,,2.0384960643983607,frequency,446.0,3.3803587063101714,0.00010950773555663003,0,27,[],0.009897066745907068,None,None,216.3986462999601,216.3986462999601,0.22383936657570302,2.2623354309740638,216.62049340014346,216.3986462999601,,,,,,,,,,,nunamh,001,fr,0,2022-05-17_10h36.21.712,Continuous,2022.1.1,36.284391215067195,
3,0,3,0,5,0,5,0,,,,,,,,1.7318399310538246,frequency,397.0,0.2343831616416603,7.944839711896525e-05,0,28,[],0.00940646673552692,None,None,218.65249170013703,218.65249170013703,0.22621626663021743,1.958056197684042,218.87146689998917,218.65249170013703,,,,,,,,,,,nunamh,001,fr,0,2022-05-17_10h36.21.712,Continuous,2022.1.1,36.284391215067195,
3,0,3,0,6,0,6,0,,,,,,,,1.639595811679055,frequency,354.0,-2.0,7.02951783824607e-05,0,29,[],0.009906266815960407,None,None,220.602425100049,220.602425100049,0.224648866802454,1.864244678481509,220.82057700003497,220.602425100049,,,,,,,,,,,nunamh,001,fr,0,2022-05-17_10h36.21.712,Continuous,2022.1.1,36.284391215067195,
3,0,3,0,7,0,7,0,,,,,,,,2.847275528787686,frequency,315.0,2.1587348237578876,0.00012644648043854613,0,30,[],0.00965556688606739,0.2024021667893976,None,222.45868119993247,222.45868119993247,0.2024021667893976,3.0496776955770835,222.66334680002183,222.45868119993247,,,,,,,,,,,nunamh,001,fr,0,2022-05-17_10h36.21.712,Continuous,2022.1.1,36.284391215067195,
3,0,3,0,8,0,8,0,,,,,,,,1.0236323730671093,frequency,281.0,4.249547672828208,0.00021961138279496156,0,31,[],0.009547966765239835,None,None,225.5100096000824,225.5100096000824,0.22695826669223607,1.2505906397593454,225.7318933000788,225.5100096000824,,,,,,,,,,,nunamh,001,fr,0,2022-05-17_10h36.21.712,Continuous,2022.1.1,36.284391215067195,
3,0,3,0,9,0,9,0,,,,,,,,1.536576455216917,frequency,250.0,4.16359216695906,0.00027048900272438176,0,32,[],0.00887726666405797,None,None,226.75152330007404,226.75152330007404,0.2283255667425692,1.7649020219594862,226.97571519995108,226.75152330007404,,,,,,,,,,,nunamh,001,fr,0,2022-05-17_10h36.21.712,Continuous,2022.1.1,36.284391215067195,
3,0,3,0,10,0,10,0,,,,,,,,2.9573860209498495,frequency,223.0,3.8758532965758468,0.0003443233860471974,0,33,[],0.003153266618028283,None,None,228.50800390006043,228.50800390006043,0.21323906676843762,3.170625087718287,228.7280552999582,228.50800390006043,,,,,,,,,,,nunamh,001,fr,0,2022-05-17_10h36.21.712,Continuous,2022.1.1,36.284391215067195,
3,0,3,0,11,0,11,0,,,,,,,,1.5948594426305505,frequency,199.0,-1.3154111676277687,0.00023126911520590068,0,34,[],0.009623166639357805,None,None,231.68072520010173,231.68072520010173,0.22656166669912636,1.8214211093296768,231.90112740010954,231.68072520010173,,,,,,,,,,,nunamh,001,fr,0,2022-05-17_10h36.21.712,Continuous,2022.1.1,36.284391215067195,
3,0,3,0,12,0,12,0,,,,,,,,1.7510795999340676,frequency,177.0,0.21094998011069688,0.0003577925703423221,0,35,[],0.009753866586834192,None,None,233.4880484000314,233.4880484000314,0.20936216646805406,1.9604417664021216,233.69627379998565,233.4880484000314,,,,,,,,,,,nunamh,001,fr,0,2022-05-17_10h36.21.712,Continuous,2022.1.1,36.284391215067195,
3,0,3,0,13,0,13,0,,,,,,,,1.7567926055749794,frequency,158.0,4.389365646274529,0.0007109705698001568,0,36,[],0.009320766432210803,0.20734526636078954,None,235.4492721001152,235.4492721001152,0.20734526636078954,1.964137871935769,235.66219389997423,235.4492721001152,,,,,,,,,,,nunamh,001,fr,0,2022-05-17_10h36.21.712,Continuous,2022.1.1,36.284391215067195,
3,0,3,0,14,0,14,0,,,,,,,,1.5989274224981622,frequency,,,,1,36,[],0.009648666717112064,None,None,237.41701530013233,237.41701530013233,0.20840526674874127,1.8073326892469035,237.6311397999525,237.41701530013233,,,,,,,,,,,nunamh,001,fr,0,2022-05-17_10h36.21.712,Continuous,2022.1.1,36.284391215067195,
4,0,4,0,0,0,0,0,,,,,,243.86440640012734,None,2.894452653289427,none,945.0,-0.06348998534954231,4.217979701693532e-05,0,23,[],0.01273736683651805,None,None,244.8899187000934,None,0.23270026687532663,3.1271529201647534,245.1111230000388,None,,239.22725090011954,None,"[0.5833333333333334, 0.3333333333333333, 0.16666666666666666, 0.16666666666666666, 0.5833333333333334, 0.5833333333333334, 0.3333333333333333, 0.3333333333333333, 0.5833333333333334, 0.5833333333333334, 0.16666666666666666, 0.3333333333333333, 0.16666666666666666, 0.16666666666666666, 0.5833333333333334]",,,,,,,nunamh,001,fr,0,2022-05-17_10h36.21.712,Continuous,2022.1.1,36.284391215067195,
4,0,4,0,1,0,1,0,,,,,,,,2.246658880431559,none,530.0,1.8113829245638688,8.224622284107816e-05,0,24,[],0.008735066512599587,None,None,248.0043945000507,248.0043945000507,0.20581816649064422,2.452477046922203,248.21596090006642,248.0043945000507,,,,,,,,,,,nunamh,001,fr,0,2022-05-17_10h36.21.712,Continuous,2022.1.1,36.284391215067195,
4,0,4,0,2,0,2,0,,,,,,,,1.1365562105934106,none,236.0,-1.253970107796727,0.00016870917108397496,0,25,[],0.00933776656165719,None,None,250.46646849997342,250.46646849997342,0.20809656661003828,1.344652777203449,250.6790879999753,250.46646849997342,,,,,,,,,,,nunamh,001,fr,0,2022-05-17_10h36.21.712,Continuous,2022.1.1,36.284391215067195,
4,0,4,0,3,0,3,0,,,,,,,,1.6765348481179756,none,148.0,3.175407735286039,0.0007465562141589807,0,26,[],0.009363666409626603,None,['space'],251.81703560007736,251.81703560007736,0.21558736660517752,1.8921222147231531,252.03415560000576,251.81703560007736,[-0.8048886000178754],,,,,,,,,,nunamh,001,fr,0,2022-05-17_10h36.21.712,Continuous,2022.1.1,36.284391215067195,
4,0,4,0,4,0,4,0,,,,,,,,1.8698634387168702,none,354.0,-2.0,7.02951783824607e-05,0,27,[],0.009184266673400998,None,['space'],253.7051465001423,253.7051465001423,0.21879826672375202,2.0886617054406225,253.92150299996138,253.7051465001423,[-0.3093195001129061],,,,,,,,,,nunamh,001,fr,0,2022-05-17_10h36.21.712,Continuous,2022.1.1,36.284391215067195,
4,0,4,0,5,0,5,0,,,,,,,,1.4147271026415682,none,1416.0,1.946675036978632,6.30464699274043e-05,0,28,[],0.0014243663754314184,None,None,255.78973120008595,255.78973120008595,0.20382336643524468,1.6185504690768129,256.01372610009275,255.78973120008595,,,,,,,,,,,nunamh,001,fr,0,2022-05-17_10h36.21.712,Continuous,2022.1.1,36.284391215067195,
4,0,4,0,6,0,6,0,,,,,,,,2.8821275730158606,none,595.0,-1.2210364277999637,4.9198720242290293e-05,0,29,[],0.00933576631359756,None,None,257.4211397001054,257.4211397001054,0.20888166641816497,3.0910092394340256,257.64057860011235,257.4211397001054,,,,,,,,,,,nunamh,001,fr,0,2022-05-17_10h36.21.712,Continuous,2022.1.1,36.284391215067195,
4,0,4,0,7,0,7,0,,,,,,,,2.2997480815512503,none,842.0,-0.7887780320051568,3.612742878622511e-05,0,30,[],0.005936566507443786,None,None,260.518118100008,260.518118100008,0.20033306651748717,2.5000811480687375,260.7320089000277,260.518118100008,,,,,,,,,,,nunamh,001,fr,0,2022-05-17_10h36.21.712,Continuous,2022.1.1,36.284391215067195,
4,0,4,0,8,0,8,0,,,,,,,,2.1631923567751072,none,,,,1,30,[],0.009300266625359654,None,None,263.0350701001007,263.0350701001007,0.20857896655797958,2.371771323333087,263.2466448000632,263.0350701001007,,,,,,,,,,,nunamh,001,fr,0,2022-05-17_10h36.21.712,Continuous,2022.1.1,36.284391215067195,
4,0,4,0,9,0,9,0,,,,,,,,2.359832778530907,none,750.0,-0.8668176868137744,3.6781473203944235e-05,0,31,[],0.005502366693690419,None,None,265.4098911001347,265.4098911001347,0.19826256670057774,2.5580953452314845,265.62398699996993,265.4098911001347,,,,,,,,,,,nunamh,001,fr,0,2022-05-17_10h36.21.712,Continuous,2022.1.1,36.284391215067195,
4,0,4,0,10,0,10,0,,,,,,,,1.2891334551002231,none,187.0,0.7457904530412698,0.0003408313300726047,0,32,[],0.00891416659578681,None,None,267.98958720010705,267.98958720010705,0.2215221666265279,1.510655621726751,268.20465350011364,267.98958720010705,,,,,,,,,,,nunamh,001,fr,0,2022-05-17_10h36.21.712,Continuous,2022.1.1,36.284391215067195,
5,0,5,0,0,0,0,0,,,,,,278.41474490007386,None,2.148264045655479,time,2520.0,3.828089276261038,0.00013153597696751192,0,33,[],0.012941266875714064,None,None,279.455833400134,None,0.2012579666916281,2.3495220123471072,279.6608237000182,None,,269.48769670003094,None,"[0.3333333333333333, 0.5833333333333334, 0.5833333333333334, 0.16666666666666666, 0.5833333333333334, 0.16666666666666666, 0.3333333333333333, 0.3333333333333333, 0.3333333333333333, 0.5833333333333334, 0.16666666666666666, 0.16666666666666666, 0.3333333333333333, 0.16666666666666666, 0.16666666666666666]",,,,,,,nunamh,001,fr,0,2022-05-17_10h36.21.712,Continuous,2022.1.1,36.284391215067195,
5,0,5,0,1,0,1,0,,,,,,,,2.148264045655479,time,3564.0,-17.85654549587761,9.763848958578046e-06,0,34,[],0.0034241664689034224,None,None,281.81059899996035,281.81059899996035,0.19334566639736295,2.341609712052842,282.0217234999873,281.81059899996035,,,,,,,,,,,nunamh,001,fr,0,2022-05-17_10h36.21.712,Continuous,2022.1.1,36.284391215067195,
5,0,5,0,2,0,2,0,,,,,,,,2.148264045655479,time,,,,1,34,[],0.009188966592773795,None,None,284.1726812000852,284.1726812000852,0.21062286663800478,2.358886912293484,284.3812961000949,284.1726812000852,,,,,,,,,,,nunamh,001,fr,0,2022-05-17_10h36.21.712,Continuous,2022.1.1,36.284391215067195,
5,0,5,0,3,0,3,0,,,,,,,,2.148264045655479,time,2829.0,-0.9708556683270109,5.8528756411569075e-05,0,35,[],0.006701966747641563,None,None,286.52949140011333,286.52949140011333,0.1970824666786939,2.345346512334173,286.74052140000276,286.52949140011333,,,,,,,,,,,nunamh,001,fr,0,2022-05-17_10h36.21.712,Continuous,2022.1.1,36.284391215067195,
5,0,5,0,4,0,4,0,,,,,,,,2.148264045655479,time,4490.0,-13.194227601901739,2.575723649182746e-05,0,36,[],0.008715766482055187,None,None,288.895506599918,288.895506599918,0.20817866665311158,2.3564427123085907,289.10629010014236,288.895506599918,,,,,,,,,,,nunamh,001,fr,0,2022-05-17_10h36.21.712,Continuous,2022.1.1,36.284391215067195,
5,0,5,0,5,0,5,0,,,,,,,,2.148264045655479,time,1682.0,-8.840685480227583,2.1846620726179225e-05,0,37,[],0.004164266400039196,0.19628826645202935,None,291.2526998000685,291.2526998000685,0.19628826645202935,2.3445523121075085,291.4658701000735,291.2526998000685,,,,,,,,,,,nunamh,001,fr,0,2022-05-17_10h36.21.712,Continuous,2022.1.1,36.284391215067195,
5,0,5,0,6,0,6,0,,,,,,,,2.148264045655479,time,5657.0,-18.0,1.6179496803071645e-05,0,38,[],0.00843576667830348,None,None,293.61412200005725,293.61412200005725,0.20888066664338112,2.3571447122988602,293.82129550003447,293.61412200005725,,,,,,,,,,,nunamh,001,fr,0,2022-05-17_10h36.21.712,Continuous,2022.1.1,36.284391215067195,
5,0,5,0,7,0,7,0,,,,,,,,2.148264045655479,time,1000.0,-17.26568297864159,6.035119243212073e-06,0,39,[],0.006184966303408146,0.19944876641966403,None,295.97171930014156,295.97171930014156,0.19944876641966403,2.347712812075143,296.1806745000649,295.97171930014156,,,,,,,,,,,nunamh,001,fr,0,2022-05-17_10h36.21.712,Continuous,2022.1.1,36.284391215067195,
5,0,5,0,8,0,8,0,,,,,,,,2.148264045655479,time,667.0,-5.469529440585199,2.5529394624975756e-05,0,40,[],0.00859426660463214,None,None,298.3346462000627,298.3346462000627,0.20582616655156016,2.3540902122070393,298.54886450013146,298.3346462000627,,,,,,,,,,,nunamh,001,fr,0,2022-05-17_10h36.21.712,Continuous,2022.1.1,36.284391215067195,
6,0,6,0,0,0,0,0,,,,,0.5833333333333334,304.5885463000741,None,1.9251306195171458,frequency,5657.0,-17.0,1.8153693994366003e-05,0,37,[],0.013182366732507944,None,None,305.626047299942,None,0.22563736676238477,2.1507679862795306,305.8415351000149,None,,300.6925820999313,None,,,,,,,,nunamh,001,fr,0,2022-05-17_10h36.21.712,Continuous,2022.1.1,36.284391215067195,
6,0,6,0,1,0,1,0,,,,,,,,1.946966622690509,frequency,3776.0,-14.486884134353465,1.5093489312744048e-05,0,38,[],0.00808436656370759,None,None,307.75930209993385,307.75930209993385,0.2059714663773775,2.152938089067886,307.97164040012285,307.75930209993385,,,,,,,,,,,nunamh,001,fr,0,2022-05-17_10h36.21.712,Continuous,2022.1.1,36.284391215067195,
6,0,6,0,2,0,2,0,,,,,,,,1.7053003751942228,frequency,2520.0,5.455070020797777,0.00015863301992092172,0,39,[],0.006297266809269786,None,None,309.9210252999328,309.9210252999328,0.19963246677070856,1.9049328419649314,310.1298349001445,309.9210252999328,,,,,,,,,,,nunamh,001,fr,0,2022-05-17_10h36.21.712,Continuous,2022.1.1,36.284391215067195,
6,0,6,0,3,0,3,0,,,,,,,,2.422698768644506,frequency,1682.0,-16.185168738360304,9.379077104299688e-06,0,40,[],0.008107066620141268,None,['space'],311.8377300000284,311.8377300000284,0.2082285664509982,2.630927335095504,312.0479602001142,311.8377300000284,[-1.489356700098142],,,,,,,,,,nunamh,001,fr,0,2022-05-17_10h36.21.712,Continuous,2022.1.1,36.284391215067195,
6,0,6,0,4,0,4,0,,,,,,,,2.321992822697757,frequency,1123.0,-4.520764275824686,2.9234925723804936e-05,0,41,[],0.007054666522890329,0.20322666666470468,None,314.47460280009545,314.47460280009545,0.20322666666470468,2.5252194893624615,314.68066000007093,314.47460280009545,,,,,,,,,,,nunamh,001,fr,0,2022-05-17_10h36.21.712,Continuous,2022.1.1,36.284391215067195,
6,0,6,0,5,0,5,0,,,,,,,,2.7452956251044673,frequency,750.0,-11.108468495333891,1.1312187099051929e-05,0,42,[],0.008246166631579399,None,None,317.0048597001005,317.0048597001005,0.21054926677607,2.9558448918805373,317.2196786000859,317.0048597001005,,,,,,,,,,,nunamh,001,fr,0,2022-05-17_10h36.21.712,Continuous,2022.1.1,36.284391215067195,
6,0,6,0,6,0,6,0,,,,,,,,1.4832635565608798,frequency,501.0,-16.798027533198162,1.030669213180255e-05,0,43,[],0.00787996663711965,None,None,319.9725017999299,319.9725017999299,0.20549926650710404,1.6887628230679839,320.1854266000446,319.9725017999299,,,,,,,,,,,nunamh,001,fr,0,2022-05-17_10h36.21.712,Continuous,2022.1.1,36.284391215067195,
6,0,6,0,7,0,7,0,,,,,,,,2.790866569720209,frequency,,,,1,43,[],0.003984066424891353,0.19687996641732752,None,321.6694505000487,321.6694505000487,0.19687996641732752,2.9877465361375366,321.8813336000312,321.6694505000487,,,,,,,,,,,nunamh,001,fr,0,2022-05-17_10h36.21.712,Continuous,2022.1.1,36.284391215067195,
6,0,6,0,8,0,8,0,,,,,,,,1.784501010836145,frequency,223.0,-5.550219864788433,0.00011632226830526043,0,44,[],0.004161766497418284,0.19622546643950045,None,324.67473249998875,324.67473249998875,0.19622546643950045,1.9807264772756454,324.8889349999372,324.67473249998875,,,,,,,,,,,nunamh,001,fr,0,2022-05-17_10h36.21.712,Continuous,2022.1.1,36.284391215067195,
7,0,7,0,0,0,0,0,,,,,0.3333333333333333,333.0550550001208,None,1.64742228489492,frequency,8000.0,-15.0,3.228271145173278e-05,0,45,[],0.010379866464063525,None,None,334.09708969993517,None,0.21811466640792787,1.865536951302848,334.320983099984,None,,326.6707033999264,None,,,,,,,,nunamh,001,fr,0,2022-05-17_10h36.21.712,Continuous,2022.1.1,36.284391215067195,
7,0,7,0,1,0,1,0,,,,,,,,2.810204319235171,frequency,6350.0,-12.99174069359989,2.947247743794995e-05,0,46,[],0.003311666427180171,0.19549646647647023,None,335.96713880007155,335.96713880007155,0.19549646647647023,3.005700785711641,336.17967420001514,335.96713880007155,,,,,,,,,,,nunamh,001,fr,0,2022-05-17_10h36.21.712,Continuous,2022.1.1,36.284391215067195,
7,0,7,0,2,0,2,0,,,,,,,,2.721972311489818,frequency,5040.0,-14.04861523408702,3.001407227647206e-05,0,47,[],0.0004920668434351683,0.19259286671876907,None,338.99287330009975,338.99287330009975,0.19259286671876907,2.914565178208587,339.1997319001239,338.99287330009975,,,,,,,,,,,nunamh,001,fr,0,2022-05-17_10h36.21.712,Continuous,2022.1.1,36.284391215067195,
7,0,7,0,3,0,3,0,,,,,,,,2.31156769172284,frequency,4000.0,-8.817428809054658,3.0415752381080956e-05,0,48,[],0.004226566758006811,0.19470966677181423,['space'],341.9214544999413,341.9214544999413,0.19470966677181423,2.5062773584946543,342.128188499948,341.9214544999413,[-2.5493886000476778],,,,,,,,,,nunamh,001,fr,0,2022-05-17_10h36.21.712,Continuous,2022.1.1,36.284391215067195,
7,0,7,0,4,0,4,0,,,,,,,,2.0571343114322893,frequency,,,,1,48,[],0.0034346668981015682,0.1946091668214649,['space'],344.44203720008954,344.44203720008954,0.1946091668214649,2.251743478253754,344.64852200006135,344.44203720008954,[-1.8695011001545936],,,,,,,,,,nunamh,001,fr,0,2022-05-17_10h36.21.712,Continuous,2022.1.1,36.284391215067195,
7,0,7,0,5,0,5,0,,,,,,,,2.373594239324987,frequency,2520.0,-10.805819764969938,2.4397712130933047e-05,0,49,[],0.007242366671562195,None,None,346.70856570010073,346.70856570010073,0.20827246666885912,2.5818667059938463,346.9248729001265,346.70856570010073,,,,,,,,,,,nunamh,001,fr,0,2022-05-17_10h36.21.712,Continuous,2022.1.1,36.284391215067195,
7,0,7,0,6,0,6,0,,,,,,,,1.0355093645091349,frequency,2000.0,-10.094980236682083,2.3400276682902653e-05,0,50,[],0.007153066573664546,0.20252636657096446,None,349.2938886000775,349.2938886000775,0.20252636657096446,1.2380357310800993,349.49937430000864,349.2938886000775,,,,,,,,,,,nunamh,001,fr,0,2022-05-17_10h36.21.712,Continuous,2022.1.1,36.284391215067195,
7,0,7,0,7,0,7,0,,,,,,,,1.7420209417781576,frequency,1587.0,-14.733911261893473,1.020440210824226e-05,0,51,[],0.0077202667016536,None,None,350.53771409997717,350.53771409997717,0.21023936662822962,1.9522603084063872,350.74652680009604,350.53771409997717,,,,,,,,,,,nunamh,001,fr,0,2022-05-17_10h36.21.712,Continuous,2022.1.1,36.284391215067195,
7,0,7,0,8,0,8,0,,,,,,,,2.478299392043367,frequency,1260.0,-2.1088279827434944,4.2564354652935364e-05,0,52,[],0.007672066334635019,0.2027324663940817,None,352.4967165000271,352.4967165000271,0.2027324663940817,2.6810318584374486,352.7023978000507,352.4967165000271,,,,,,,,,,,nunamh,001,fr,0,2022-05-17_10h36.21.712,Continuous,2022.1.1,36.284391215067195,
8,0,8,0,0,0,0,0,,,,,,365.4038589000702,None,2.2773548233355183,none,5657.0,-18.0,1.6179496803071645e-05,0,33,[],0.012142466381192207,None,None,366.4453992000781,None,0.20937966625206172,2.48673448958758,366.65590439992957,None,,355.1816664999351,None,"[0.3333333333333333, 0.16666666666666666, 0.16666666666666666, 0.16666666666666666, 0.5833333333333334, 0.16666666666666666, 0.5833333333333334, 0.16666666666666666, 0.3333333333333333, 0.5833333333333334, 0.3333333333333333, 0.3333333333333333, 0.3333333333333333, 0.5833333333333334, 0.5833333333333334]",,,,,,,nunamh,001,fr,0,2022-05-17_10h36.21.712,Continuous,2022.1.1,36.284391215067195,
8,0,8,0,1,0,1,0,,,,,,,,1.0906729377014226,none,,,,1,33,[],0.0007973667234182358,0.1921576668974012,None,368.9409759999253,368.9409759999253,0.1921576668974012,1.2828306045988238,369.1537208999507,368.9409759999253,,,,,,,,,,,nunamh,001,fr,0,2022-05-17_10h36.21.712,Continuous,2022.1.1,36.284391215067195,
8,0,8,0,2,0,2,0,,,,,,,,1.0666666859831946,none,1415.0,-9.297822876649487,1.728422089766197e-05,0,34,[],0.004980766447260976,0.19543016655370593,None,370.2364986001048,370.2364986001048,0.19543016655370593,1.2620968525369005,370.4445219000336,370.2364986001048,,,,,,,,,,,nunamh,001,fr,0,2022-05-17_10h36.21.712,Continuous,2022.1.1,36.284391215067195,
8,0,8,0,3,0,3,0,,,,,,,,2.3212221025996826,none,2379.0,4.5053472162982136,0.00013978464767510138,0,35,[],0.007476266706362367,None,None,371.5171270999126,371.5171270999126,0.20532416668720543,2.526546269286888,371.72475489997305,371.5171270999126,,,,,,,,,,,nunamh,001,fr,0,2022-05-17_10h36.21.712,Continuous,2022.1.1,36.284391215067195,
8,0,8,0,4,0,4,0,,,,,,,,2.744195174967894,none,4490.0,-14.586598941032626,2.1942226740415663e-05,0,36,[],0.00710126687772572,None,None,374.05209310003556,374.05209310003556,0.2053905667271465,2.9495857416950404,374.26358449994586,374.05209310003556,,,,,,,,,,,nunamh,001,fr,0,2022-05-17_10h36.21.712,Continuous,2022.1.1,36.284391215067195,
8,0,8,0,5,0,5,0,,,,,,,,1.0325146568035388,none,1588.0,0.8112146258817288,6.119312265525356e-05,0,37,[],0.003229766618460417,0.19409666652791202,None,377.0098973000422,377.0098973000422,0.19409666652791202,1.2266113233314508,377.2172395000234,377.0098973000422,,,,,,,,,,,nunamh,001,fr,0,2022-05-17_10h36.21.712,Continuous,2022.1.1,36.284391215067195,
8,0,8,0,6,0,6,0,,,,,,,,2.4526248098229284,none,1261.0,1.0276833523571467,6.10482003759831e-05,0,38,[],0.007420266512781382,None,None,378.25231699994765,378.25231699994765,0.20562936668284237,2.658254176505771,378.4648273999337,378.25231699994765,,,,,,,,,,,nunamh,001,fr,0,2022-05-17_10h36.21.712,Continuous,2022.1.1,36.284391215067195,
8,0,8,0,7,0,7,0,,,,,,,,1.8420784521816493,none,1123.0,-0.8666765514135486,4.4525251474560256e-05,0,39,[],0.007163566537201405,None,None,380.9218699000776,380.9218699000776,0.20858596661128104,2.0506644187929304,381.13126210006885,380.9218699000776,,,,,,,,,,,nunamh,001,fr,0,2022-05-17_10h36.21.712,Continuous,2022.1.1,36.284391215067195,
8,0,8,0,8,0,8,0,,,,,,,,2.2644988525005143,none,2670.0,2.3758965791643707,9.903054595536106e-05,0,40,[],0.006314466940239072,0.1983274668455124,None,382.9792391001247,382.9792391001247,0.1983274668455124,2.4628263193460267,383.1869463000912,382.9792391001247,,,,,,,,,,,nunamh,001,fr,0,2022-05-17_10h36.21.712,Continuous,2022.1.1,36.284391215067195,
9,0,9,0,0,0,0,0,,,,,,388.03800630010664,None,1.2440264403936738,time,150.0,7.0,0.0011196952247098104,0,41,[],0.012296066619455814,None,None,389.0602240001317,None,0.2340006665326655,1.4780271069263393,389.2760985000059,None,,385.4516733000055,None,"[0.3333333333333333, 0.16666666666666666, 0.16666666666666666, 0.16666666666666666, 0.3333333333333333, 0.16666666666666666, 0.5833333333333334, 0.16666666666666666, 0.16666666666666666, 0.5833333333333334, 0.16666666666666666, 0.16666666666666666, 0.5833333333333334, 0.5833333333333334, 0.5833333333333334]",,,,,,,nunamh,001,fr,0,2022-05-17_10h36.21.712,Continuous,2022.1.1,36.284391215067195,
9,0,9,0,1,0,1,0,,,,,,,,1.2440264403936738,time,283.0,6.929793327091402,0.0002942919489026568,0,42,[],0.006470766384154558,0.19942766637541354,None,390.52022120007314,390.52022120007314,0.19942766637541354,1.4434541067690874,390.7277051000856,390.52022120007314,,,,,,,,,,,nunamh,001,fr,0,2022-05-17_10h36.21.712,Continuous,2022.1.1,36.284391215067195,
9,0,9,0,2,0,2,0,,,,,,,,1.2440264403936738,time,357.0,6.810428351721294,0.00019213565153074964,0,43,[],0.00362966675311327,0.19665316678583622,None,391.9737209000159,391.9737209000159,0.19665316678583622,1.44067960717951,392.18317450000905,391.9737209000159,,,,,,,,,,,nunamh,001,fr,0,2022-05-17_10h36.21.712,Continuous,2022.1.1,36.284391215067195,
9,0,9,0,3,0,3,0,,,,,,,,1.2440264403936738,time,168.0,6.965230735813309,0.0008517426986864157,0,44,[],0.006803866708651185,None,['space'],393.4330025999807,393.4330025999807,0.2027211666572839,1.4467476070509577,393.64557610009797,393.4330025999807,[-1.0441974001005292],,,,,,,,,,nunamh,001,fr,0,2022-05-17_10h36.21.712,Continuous,2022.1.1,36.284391215067195,
9,0,9,0,4,0,4,0,,,,,,,,1.2440264403936738,time,1202.0,5.734977051207969,0.00010160632689716829,0,45,[],0.003691766643896699,0.19801826658658683,['space'],394.89360080007464,394.89360080007464,0.19801826658658683,1.4420447069802607,395.1107233001385,394.89360080007464,[-1.0410745998378843],,,,,,,,,,nunamh,001,fr,0,2022-05-17_10h36.21.712,Continuous,2022.1.1,36.284391215067195,
9,0,9,0,5,0,5,0,,,,,,,,1.2440264403936738,time,318.0,7.0,0.00021904164730947637,0,46,[],0.006669966503977776,None,"['space', 'space']",396.3550132000819,396.3550132000819,0.2052149665541947,1.4492414069478685,396.57522869994864,396.3550132000819,"[-1.1271621000487357, 0.21774160000495613]",,,,,,,,,,nunamh,001,fr,0,2022-05-17_10h36.21.712,Continuous,2022.1.1,36.284391215067195,
9,0,9,0,6,0,6,0,,,,,,,,1.2440264403936738,time,,,,1,46,[],0.004994666436687112,0.19797196658328176,['space'],397.81253400002606,397.81253400002606,0.19797196658328176,1.4419984069769556,398.022939800052,397.81253400002606,[0.04821429983712733],,,,,,,,,,nunamh,001,fr,0,2022-05-17_10h36.21.712,Continuous,2022.1.1,36.284391215067195,
9,0,9,0,7,0,7,0,,,,,,,,1.2440264403936738,time,189.0,7.0,0.0006839382076479004,0,47,[],0.008043666603043675,None,None,399.27144000004046,399.27144000004046,0.20727766654454172,1.4513041069382155,399.4830201000441,399.27144000004046,,,,,,,,,,,nunamh,001,fr,0,2022-05-17_10h36.21.712,Continuous,2022.1.1,36.284391215067195,
9,0,9,0,8,0,8,0,,,,,,,,1.2440264403936738,time,535.0,6.661616350009546,0.00014207706100709096,0,48,[],0.003653366584330797,0.19814916653558612,None,400.7331086001359,400.7331086001359,0.19814916653558612,1.44217560692926,400.94987450004555,400.7331086001359,,,,,,,,,,,nunamh,001,fr,0,2022-05-17_10h36.21.712,Continuous,2022.1.1,36.284391215067195,
9,0,9,0,9,0,9,0,,,,,,,,1.2440264403936738,time,802.0,-0.5130468783239819,3.62210142611187e-05,0,49,[],0.0065165667328983545,None,"['space', 'space']",402.1939505999908,402.1939505999908,0.20462166657671332,1.4486481069703872,402.4176938999444,402.1939505999908,"[-1.23742979997769, 0.058568699983879924]",,,,,,,,,,nunamh,001,fr,0,2022-05-17_10h36.21.712,Continuous,2022.1.1,36.284391215067195,
10,0,10,0,0,0,0,0,,,,,0.5833333333333334,407.29808810004033,None,2.844225430944533,both,8000.0,-16.0,2.8771996866857863e-05,0,45,[],0.013178866589441895,None,None,408.3258770001121,None,0.21211266657337546,3.0563380975179086,408.5322138001211,None,,403.65337780001573,None,,,,,,,,nunamh,001,fr,0,2022-05-17_10h36.21.712,Continuous,2022.1.1,36.284391215067195,
10,0,10,0,1,0,1,0,,,,,,,,2.844225430944533,both,,,,1,45,[],0.002478566486388445,0.1938921664841473,None,411.37846889998764,411.37846889998764,0.1938921664841473,3.0381175974286805,411.5950273000635,411.37846889998764,,,,,,,,,,,nunamh,001,fr,0,2022-05-17_10h36.21.712,Continuous,2022.1.1,36.284391215067195,
10,0,10,0,2,0,2,0,,,,,,,,2.844225430944533,both,3563.0,-12.890250230251322,1.729162744708564e-05,0,46,[],0.007756366627290845,None,None,414.4410812999122,414.4410812999122,0.20610616658814251,3.0503315975326757,414.6636022001039,414.4410812999122,,,,,,,,,,,nunamh,001,fr,0,2022-05-17_10h36.21.712,Continuous,2022.1.1,36.284391215067195,
10,0,10,0,3,0,3,0,,,,,,,,2.844225430944533,both,2378.0,-11.35730067294582,2.2501495019281093e-05,0,47,[],0.01589843351393938,None,None,417.5015297001228,417.5015297001228,0.2371227336116135,3.0813481645561467,417.7311806001235,417.5015297001228,,,,,,,,,,,nunamh,001,fr,0,2022-05-17_10h36.21.712,Continuous,2022.1.1,36.284391215067195,
10,0,10,0,4,0,4,0,,,,,,,,2.844225430944533,both,1587.0,-8.961755463909638,1.9833317016188794e-05,0,48,[],0.0025764666497707367,0.19644656660966575,None,420.5728249999229,420.5728249999229,0.19644656660966575,3.040671997554199,420.7853327000048,420.5728249999229,,,,,,,,,,,nunamh,001,fr,0,2022-05-17_10h36.21.712,Continuous,2022.1.1,36.284391215067195,
10,0,10,0,5,0,5,0,,,,,,,,2.844225430944533,both,1059.0,-3.5983828053933316,3.074134347103251e-05,0,49,[],0.0022818667348474264,0.1918078667949885,None,423.62893000012264,423.62893000012264,0.1918078667949885,3.0360332977395217,423.83834269992076,423.62893000012264,,,,,,,,,,,nunamh,001,fr,0,2022-05-17_10h36.21.712,Continuous,2022.1.1,36.284391215067195,
10,0,10,0,6,0,6,0,,,,,,,,2.844225430944533,both,707.0,-8.995083598189824,1.576700482841582e-05,0,50,[],0.002540966495871544,0.19323036656714976,None,426.6785369000863,426.6785369000863,0.19323036656714976,3.037455797511683,426.8788493000902,426.6785369000863,,,,,,,,,,,nunamh,001,fr,0,2022-05-17_10h36.21.712,Continuous,2022.1.1,36.284391215067195,
10,0,10,0,7,0,7,0,,,,,,,,2.844225430944533,both,472.0,-12.188111898247175,1.791329170631943e-05,0,51,[],0.005772666539996862,None,None,429.7291530999355,429.7291530999355,0.20308316661976278,3.047308597564296,429.9417459999677,429.7291530999355,,,,,,,,,,,nunamh,001,fr,0,2022-05-17_10h36.21.712,Continuous,2022.1.1,36.284391215067195,
10,0,10,0,8,0,8,0,,,,,,,,2.844225430944533,both,315.0,-13.170745760597043,2.164874457053768e-05,0,52,[],0.014972833450883627,None,None,432.79396059992723,432.79396059992723,0.20768943359144032,3.0519148645359735,433.0079996001441,432.79396059992723,,,,,,,,,,,nunamh,001,fr,0,2022-05-17_10h36.21.712,Continuous,2022.1.1,36.284391215067195,
11,0,11,0,0,0,0,0,,,,,,458.529036300024,None,2.4935192706134854,time,,,,1,49,[],0.013025966472923756,None,None,459.5658579999581,None,0.21578986663371325,2.7093091372471987,459.77732060011476,None,,435.85576459998265,None,"[0.16666666666666666, 0.3333333333333333, 0.5833333333333334, 0.16666666666666666, 0.3333333333333333, 0.16666666666666666, 0.3333333333333333, 0.3333333333333333, 0.3333333333333333, 0.16666666666666666, 0.3333333333333333, 0.3333333333333333, 0.5833333333333334, 0.3333333333333333, 0.3333333333333333]",,,,,,,nunamh,001,fr,0,2022-05-17_10h36.21.712,Continuous,2022.1.1,36.284391215067195,
11,0,11,0,1,0,1,0,,,,,,,,2.4935192706134854,time,6350.0,-12.706524468738538,3.0456321981226265e-05,0,50,[],0.0072433664463460445,None,None,462.2748000000138,462.2748000000138,0.20763096655718982,2.7011502371706753,462.487948999973,462.2748000000138,,,,,,,,,,,nunamh,001,fr,0,2022-05-17_10h36.21.712,Continuous,2022.1.1,36.284391215067195,
11,0,11,0,2,0,2,0,,,,,,,,2.4935192706134854,time,5040.0,-14.002425470851323,3.0174106036412353e-05,0,51,[],0.0017636665143072605,0.1901117665693164,None,464.9853405000176,464.9853405000176,0.1901117665693164,2.683631037182802,465.1885897999164,464.9853405000176,,,,,,,,,,,nunamh,001,fr,0,2022-05-17_10h36.21.712,Continuous,2022.1.1,36.284391215067195,
11,0,11,0,3,0,3,0,,,,,,,,2.4935192706134854,time,2520.0,5.645953732599751,0.00016215777535428724,0,52,[],0.0013916667085140944,0.19412086671218276,"['space', 'space']",467.6885365000926,467.6885365000926,0.19412086671218276,2.687640137325668,467.90109300008044,467.6885365000926,"[-2.31690809992142, -0.6124586998485029]",,,,,,,,,,nunamh,001,fr,0,2022-05-17_10h36.21.712,Continuous,2022.1.1,36.284391215067195,
11,0,11,0,4,0,4,0,,,,,,,,2.4935192706134854,time,8000.0,-14.0,3.622179800374953e-05,0,53,[],0.002233766485005617,0.19375236658379436,['space'],470.3930319000501,470.3930319000501,0.19375236658379436,2.68727163719728,470.6008868999779,470.3930319000501,[-2.2531510000117123],,,,,,,,,,nunamh,001,fr,0,2022-05-17_10h36.21.712,Continuous,2022.1.1,36.284391215067195,
11,0,11,0,5,0,5,0,,,,,,,,2.4935192706134854,time,4000.0,-9.60135293510839,2.7790883751326144e-05,0,54,[],0.001424966612830758,0.1928246666211635,None,473.09429939999245,473.09429939999245,0.1928246666211635,2.686343937234649,473.2954528001137,473.09429939999245,,,,,,,,,,,nunamh,001,fr,0,2022-05-17_10h36.21.712,Continuous,2022.1.1,36.284391215067195,
11,0,11,0,6,0,6,0,,,,,,,,2.4935192706134854,time,1682.0,-12.710465528640372,1.3992498423390167e-05,0,55,[],0.0036253666039556265,0.1962921665981412,None,475.79441750003025,475.79441750003025,0.1962921665981412,2.6898114372116266,475.99894820014015,475.79441750003025,,,,,,,,,,,nunamh,001,fr,0,2022-05-17_10h36.21.712,Continuous,2022.1.1,36.284391215067195,
11,0,11,0,7,0,7,0,,,,,,,,2.4935192706134854,time,3564.0,-12.75403553371623,1.7568980087285274e-05,0,56,[],0.004730066517367959,None,None,478.49747340008616,478.49747340008616,0.2016192665323615,2.695138537145847,478.70706839999184,478.49747340008616,,,,,,,,,,,nunamh,001,fr,0,2022-05-17_10h36.21.712,Continuous,2022.1.1,36.284391215067195,
11,0,11,0,8,0,8,0,,,,,,,,2.4935192706134854,time,2829.0,-11.847146766635362,1.673226528746175e-05,0,57,[],0.001721266657114029,0.19150016666390002,None,481.20598089997657,481.20598089997657,0.19150016666390002,2.6850194372773855,481.41640589991584,481.20598089997657,,,,,,,,,,,nunamh,001,fr,0,2022-05-17_10h36.21.712,Continuous,2022.1.1,36.284391215067195,
12,0,12,0,0,0,0,0,,,,,0.16666666666666666,490.1231635999866,None,1.5978281759774131,frequency,249.0,5.690775059443974,0.0003262568135957668,0,53,[],0.012788466643542051,None,None,491.1646450001281,None,0.22355806664563715,1.8213862426230503,491.3771009000484,None,,483.9173349000048,None,,,,,,,,nunamh,001,fr,0,2022-05-17_10h36.21.712,Continuous,2022.1.1,36.284391215067195,
12,0,12,0,1,0,1,0,,,,,,,,1.5882942164446283,frequency,222.0,5.254353071577453,0.0004071320903087872,0,54,[],0.0019509668927639723,0.1923271669074893,None,492.98006580001675,492.98006580001675,0.1923271669074893,1.7806213833521176,493.1858177999966,492.98006580001675,,,,,,,,,,,nunamh,001,fr,0,2022-05-17_10h36.21.712,Continuous,2022.1.1,36.284391215067195,
12,0,12,0,2,0,2,0,,,,,,,,2.2754066722803215,frequency,198.0,5.049673944199987,0.000487764874670875,0,55,[],0.005615166621282697,None,None,494.780550400028,494.780550400028,0.20356106664985418,2.4789677389301756,494.9852972999215,494.780550400028,,,,,,,,,,,nunamh,001,fr,0,2022-05-17_10h36.21.712,Continuous,2022.1.1,36.284391215067195,
12,0,12,0,3,0,3,0,,,,,,,,1.5324894624548147,frequency,176.0,5.1216196310213356,0.0006363128800391656,0,56,[],0.004038666607812047,0.19886246672831476,['space'],497.26722349994816,497.26722349994816,0.19886246672831476,1.7313519291831294,497.4765022001229,497.26722349994816,[-2.0074825999327004],,,,,,,,,,nunamh,001,fr,0,2022-05-17_10h36.21.712,Continuous,2022.1.1,36.284391215067195,
12,0,12,0,4,0,4,0,,,,,,,,1.1144890434355221,frequency,157.0,5.944682386278196,0.0008680393441496309,0,57,[],0.005265966756269336,None,['space'],499.01831800001673,499.01831800001673,0.20353596680797637,1.3180250102434985,499.2244575000368,499.01831800001673,[-1.3904112000018358],,,,,,,,,,nunamh,001,fr,0,2022-05-17_10h36.21.712,Continuous,2022.1.1,36.284391215067195,
12,0,12,0,5,0,5,0,,,,,,,,1.5776436155456321,frequency,140.0,6.506125384930625,0.0012460989485544801,0,58,[],0.016150533454492688,None,['space'],500.3470987000037,500.3470987000037,0.2378474334254861,1.8154910489711182,500.5768303000368,500.3470987000037,[-0.9429434000048786],,,,,,,,,,nunamh,001,fr,0,2022-05-17_10h36.21.712,Continuous,2022.1.1,36.284391215067195,
12,0,12,0,6,0,6,0,,,,,,,,1.627982837157905,frequency,125.0,5.0,0.0012851978913844323,0,59,[],0.005298166768625379,None,"['space', 'space']",502.1541009999346,502.1541009999346,0.2039883667603135,1.8319712039182185,502.3641912001185,502.1541009999346,"[-1.4863257000688463, -0.07805919996462762]",,,,,,,,,,nunamh,001,fr,0,2022-05-17_10h36.21.712,Continuous,2022.1.1,36.284391215067195,
12,0,12,0,7,0,7,0,,,,,,,,1.7441795474333153,frequency,,,,1,59,[],0.0015838665422052145,0.19102766667492688,['space'],503.99642729992047,503.99642729992047,0.19102766667492688,1.9352072141082421,504.20430899993517,503.99642729992047,[-0.14407349983230233],,,,,,,,,,nunamh,001,fr,0,2022-05-17_10h36.21.712,Continuous,2022.1.1,36.284391215067195,
13,0,13,0,0,0,0,0,,,,,,508.93505949992687,None,1.8135611011067299,time,157.0,6.343214701082234,0.0009087952028071172,0,58,[],0.012734966585412621,None,None,509.95293650007807,None,0.2177103664726019,2.031271467579332,510.16795899998397,None,,505.95385290007107,None,"[0.3333333333333333, 0.5833333333333334, 0.5833333333333334, 0.3333333333333333, 0.16666666666666666, 0.3333333333333333, 0.5833333333333334, 0.3333333333333333, 0.3333333333333333, 0.16666666666666666, 0.3333333333333333, 0.5833333333333334, 0.3333333333333333, 0.3333333333333333, 0.5833333333333334]",,,,,,,nunamh,001,fr,0,2022-05-17_10h36.21.712,Continuous,2022.1.1,36.284391215067195,
13,0,13,0,1,0,1,0,,,,,,,,1.8135611011067299,time,420.0,5.981003323144988,0.0001503777800713445,0,59,[],0.0005456665530800819,0.19066056655719876,None,511.9862347000744,511.9862347000744,0.19066056655719876,2.004221667663929,512.1913141999394,511.9862347000744,,,,,,,,,,,nunamh,001,fr,0,2022-05-17_10h36.21.712,Continuous,2022.1.1,36.284391215067195,
13,0,13,0,2,0,2,0,,,,,,,,1.8135611011067299,time,198.0,5.757306299349827,0.0005291662534194324,0,60,[],0.004941666731610894,None,['space'],514.0170976000372,514.0170976000372,0.2016644668765366,2.0152255679832667,514.2315511999186,514.0170976000372,[-1.6132399998605251],,,,,,,,,,nunamh,001,fr,0,2022-05-17_10h36.21.712,Continuous,2022.1.1,36.284391215067195,
13,0,13,0,3,0,3,0,,,,,,,,1.8135611011067299,time,280.0,6.156879287716729,0.0002756926920557154,0,61,[],0.011616533622145653,None,"['space', 'space']",516.049999400042,516.049999400042,0.23228633357211947,2.0458474346788496,516.2814200001303,516.049999400042,"[-1.6942492998205125, 0.10614910000003874]",,,,,,,,,,nunamh,001,fr,0,2022-05-17_10h36.21.712,Continuous,2022.1.1,36.284391215067195,
13,0,13,0,4,0,4,0,,,,,,,,1.8135611011067299,time,,,,1,61,[],0.015903633320704103,None,['space'],518.0985203001183,518.0985203001183,0.2081972334999591,2.021758334606689,520.0951757999137,518.0985203001183,[-0.0708186998963356],,,,,,,,,,nunamh,001,fr,0,2022-05-17_10h36.21.712,Continuous,2022.1.1,36.284391215067195,
13,0,13,0,5,0,5,0,,,,,,,,1.8135611011067299,time,529.0,5.130548044077663,0.00012080580228785401,0,62,[],0.00321116647683084,0.1946029665414244,['space'],520.1286504000891,520.1286504000891,0.1946029665414244,2.0081640676481545,520.3392169999424,520.1286504000891,[-0.004090199945494533],,,,,,,,,,nunamh,001,fr,0,2022-05-17_10h36.21.712,Continuous,2022.1.1,36.284391215067195,
13,0,13,0,6,0,6,0,,,,,,,,1.8135611011067299,time,666.0,-0.28956469372295424,4.6433645135511745e-05,0,63,[],0.0001617667730897665,0.19560996675863862,['space'],522.1516050000209,522.1516050000209,0.19560996675863862,2.0091710678653687,522.3725870000198,522.1516050000209,[-0.027449200162664056],,,,,,,,,,nunamh,001,fr,0,2022-05-17_10h36.21.712,Continuous,2022.1.1,36.284391215067195,
13,0,13,0,7,0,7,0,,,,,,,,1.8135611011067299,time,125.0,6.0,0.0014420157515633036,0,64,[],0.012977533275261521,None,['space'],524.1890306000132,524.1890306000132,0.20560213341377676,2.019163234520507,524.4076219999697,524.1890306000132,[0.14309959998354316],,,,,,,,,,nunamh,001,fr,0,2022-05-17_10h36.21.712,Continuous,2022.1.1,36.284391215067195,
13,0,13,0,8,0,8,0,,,,,,,,1.8135611011067299,time,222.0,5.901120839407503,0.0004386051465889281,0,65,[],0.004530866630375385,None,['space'],526.2256348000374,526.2256348000374,0.20286276657134295,2.016423867678073,526.4422671999782,526.2256348000374,[0.05103880004025996],,,,,,,,,,nunamh,001,fr,0,2022-05-17_10h36.21.712,Continuous,2022.1.1,36.284391215067195,
13,0,13,0,9,0,9,0,,,,,,,,1.8135611011067299,time,998.0,3.307215747168135,6.438282544544535e-05,0,66,[],0.0008957665413618088,0.19093106663785875,['space'],528.2511370999273,528.2511370999273,0.19093106663785875,2.004492167744589,528.4553455000278,528.2511370999273,[-0.014738600002601743],,,,,,,,,,nunamh,001,fr,0,2022-05-17_10h36.21.712,Continuous,2022.1.1,36.284391215067195,
14,0,14,0,0,0,0,0,,,,,0.3333333333333333,532.748983599944,None,2.9850953936194107,both,7292.0,-4.537298398002363,9.494374377791182e-05,0,53,[],0.013000866631045938,None,['space'],533.7868679999374,None,0.2241923667024821,3.209287760321893,533.9988804999739,None,[-1.4139334000647068],530.272061600117,None,,,,,,,,nunamh,001,fr,0,2022-05-17_10h36.21.712,Continuous,2022.1.1,36.284391215067195,
14,0,14,0,1,0,1,0,,,,,,,,2.9850953936194107,both,5788.0,-11.044570616823655,3.468145636809299e-05,0,54,[],0.013025133637711406,None,['space'],536.9882050000597,536.9882050000597,0.20365773374214768,3.1887531273615584,537.1994101000018,536.9882050000597,[-2.832489399937913],,,,,,,,,,nunamh,001,fr,0,2022-05-17_10h36.21.712,Continuous,2022.1.1,36.284391215067195,
14,0,14,0,2,0,2,0,,,,,,,,2.9850953936194107,both,4594.0,-11.086542283016879,3.482774262191233e-05,0,55,[],0.0045335665345191956,None,['space'],540.1934994000476,540.1934994000476,0.204386466415599,3.1894818600350097,540.4001227000263,540.1934994000476,[-2.7002042999956757],,,,,,,,,,nunamh,001,fr,0,2022-05-17_10h36.21.712,Continuous,2022.1.1,36.284391215067195,
14,0,14,0,3,0,3,0,,,,,,,,2.9850953936194107,both,3646.0,-2.4657033425161043,5.8516914916578784e-05,0,56,[],0.012844433542340994,None,"['space', 'space']",543.3953188001178,543.3953188001178,0.23082733363844454,3.215922727257855,543.6249770000577,543.3953188001178,"[-2.8955433000810444, -0.49592950008809566]",,,,,,,,,,nunamh,001,fr,0,2022-05-17_10h36.21.712,Continuous,2022.1.1,36.284391215067195,
14,0,14,0,4,0,4,0,,,,,,,,2.9850953936194107,both,2894.0,0.9159815250599248,6.824105611732445e-05,0,57,[],0.00041196681559085846,0.1915797668043524,None,546.6052276000846,546.6052276000846,0.1915797668043524,3.176675160423763,546.8182182000019,546.6052276000846,,,,,,,,,,,nunamh,001,fr,0,2022-05-17_10h36.21.712,Continuous,2022.1.1,36.284391215067195,
14,0,14,0,5,0,5,0,,,,,,,,2.9850953936194107,both,2297.0,0.0,8.139546291729739e-05,0,58,[],0.004574266728013754,None,"['space', 'space']",549.8051223000512,549.8051223000512,0.20175806689076126,3.186853460510172,550.0127475999761,549.8051223000512,"[-2.8722074998077005, -0.23234239988960326]",,,,,,,,,,nunamh,001,fr,0,2022-05-17_10h36.21.712,Continuous,2022.1.1,36.284391215067195,
14,0,14,0,6,0,6,0,,,,,,,,2.9850953936194107,both,1823.0,4.008079800555343,0.00010600061924105335,0,59,[],0.004352066665887833,0.2013236666098237,None,553.0066708000377,553.0066708000377,0.2013236666098237,3.1864190602292344,553.2140967999585,553.0066708000377,,,,,,,,,,,nunamh,001,fr,0,2022-05-17_10h36.21.712,Continuous,2022.1.1,36.284391215067195,
14,0,14,0,7,0,7,0,,,,,,,,2.9850953936194107,both,1447.0,2.0027783156493966,6.248579846144319e-05,0,60,[],0.0006000667344778776,0.1909333667717874,['space'],556.2033069999889,556.2033069999889,0.1909333667717874,3.176028760391198,556.4121602999512,556.2033069999889,[0.008568000048398972],,,,,,,,,,nunamh,001,fr,0,2022-05-17_10h36.21.712,Continuous,2022.1.1,36.284391215067195,
14,0,14,0,8,0,8,0,,,,,,,,2.9850953936194107,both,,,,1,60,[],0.016554033383727074,None,['space'],559.4029598999768,559.4029598999768,0.23555223341099918,3.22064762703041,559.6324213999324,559.4029598999768,[-0.10162370000034571],,,,,,,,,,nunamh,001,fr,0,2022-05-17_10h36.21.712,Continuous,2022.1.1,36.284391215067195,
14,0,14,0,9,0,9,0,,,,,,,,2.9850953936194107,both,911.0,0.09738935805714344,4.199108908664552e-05,0,61,[],0.005427966825664043,None,['space'],562.6147589001339,562.6147589001339,0.20331316674128175,3.1884085603606924,562.8276512001175,562.6147589001339,[-0.21055270009674132],,,,,,,,,,nunamh,001,fr,0,2022-05-17_10h36.21.712,Continuous,2022.1.1,36.284391215067195,
14,0,14,0,10,0,10,0,,,,,,,,2.9850953936194107,both,723.0,-0.12964848490089098,4.237202595725043e-05,0,62,[],0.004020266700536013,None,None,565.8218906000257,565.8218906000257,0.20258036674931645,3.187675760368727,566.0282612000592,565.8218906000257,,,,,,,,,,,nunamh,001,fr,0,2022-05-17_10h36.21.712,Continuous,2022.1.1,36.284391215067195,
14,0,14,0,11,0,11,0,,,,,,,,2.9850953936194107,both,574.0,0.8041756826474679,6.571136175570063e-05,0,63,[],0.003541666781529784,None,None,569.0308515001088,569.0308515001088,0.21353846695274115,3.198633860572152,569.2366822999902,569.0308515001088,,,,,,,,,,,nunamh,001,fr,0,2022-05-17_10h36.21.712,Continuous,2022.1.1,36.284391215067195,
14,0,14,0,12,0,12,0,,,,,,,,2.9850953936194107,both,456.0,1.044184916673879,8.310654302336983e-05,0,64,[],6.566662341356277e-05,0.19084296678192914,['space'],572.2209549001418,572.2209549001418,0.19084296678192914,3.17593836040134,572.4334730000701,572.2209549001418,[0.05446560005657375],,,,,,,,,,nunamh,001,fr,0,2022-05-17_10h36.21.712,Continuous,2022.1.1,36.284391215067195,
14,0,14,0,13,0,13,0,,,,,,,,2.9850953936194107,both,362.0,1.029336977683327,9.729234498558685e-05,0,65,[],0.0006005666218698025,0.1918808666523546,['space'],575.4221411999315,575.4221411999315,0.1918808666523546,3.1769762602717653,575.6330844999757,575.4221411999315,[-0.08206359995529056],,,,,,,,,,nunamh,001,fr,0,2022-05-17_10h36.21.712,Continuous,2022.1.1,36.284391215067195,
15,0,15,0,0,0,0,0,,,,,0.5833333333333334,582.9901922000572,None,2.1671118044005704,both,1411.0,1.668762664738309,6.121160245594012e-05,0,66,[],0.012635966762900352,None,None,584.0357365000527,None,0.20405986672267318,2.3711716711232436,584.2369721999858,None,,578.6234979999717,None,,,,,,,,nunamh,001,fr,0,2022-05-17_10h36.21.712,Continuous,2022.1.1,36.284391215067195,
15,0,15,0,1,0,1,0,,,,,,,,2.1671118044005704,both,942.0,-0.8652889837203392,3.838328466064927e-05,0,67,[],0.0037679667584598064,None,None,586.4109630999155,586.4109630999155,0.203185866586864,2.3702976709874344,586.6179679001216,586.4109630999155,,,,,,,,,,,nunamh,001,fr,0,2022-05-17_10h36.21.712,Continuous,2022.1.1,36.284391215067195,
15,0,15,0,2,0,2,0,,,,,,,,2.1671118044005704,both,629.0,-0.05498228323238641,5.099681275277763e-05,0,68,[],0.003660966642200947,0.19550056662410498,None,588.7970346999355,588.7970346999355,0.19550056662410498,2.3626123710246754,588.9985357001424,588.7970346999355,,,,,,,,,,,nunamh,001,fr,0,2022-05-17_10h36.21.712,Continuous,2022.1.1,36.284391215067195,
15,0,15,0,3,0,3,0,,,,,,,,2.1671118044005704,both,420.0,3.463240060460973,0.00011253704472620285,0,69,[],0.01634263340383768,None,['space'],591.1724276000168,591.1724276000168,0.21584363328292966,2.3829554376835,591.3884755999316,591.1724276000168,[-1.8486528999637812],,,,,,,,,,nunamh,001,fr,0,2022-05-17_10h36.21.712,Continuous,2022.1.1,36.284391215067195,
15,0,15,0,4,0,4,0,,,,,,,,2.1671118044005704,both,280.0,1.7013342595258276,0.00016506234196865446,0,70,[],0.012414633296430111,None,"['space', 'space']",593.5650327000767,593.5650327000767,0.2026425334624946,2.369754337863065,593.7785893001128,593.5650327000767,"[-2.113447400042787, 0.007650699932128191]",,,,,,,,,,nunamh,001,fr,0,2022-05-17_10h36.21.712,Continuous,2022.1.1,36.284391215067195,
15,0,15,0,5,0,5,0,,,,,,,,2.1671118044005704,both,187.0,3.1675506285938733,0.0004504302178182489,0,71,[],0.003694166662171483,None,None,595.9546280999202,595.9546280999202,0.20993676665239036,2.3770485710529607,596.1769395999145,595.9546280999202,,,,,,,,,,,nunamh,001,fr,0,2022-05-17_10h36.21.712,Continuous,2022.1.1,36.284391215067195,
15,0,15,0,6,0,6,0,,,,,,,,2.1671118044005704,both,125.0,-1.0,0.000644124775846567,0,72,[],0.0002135664690285921,0.19051876640878618,"['space', 'space']",598.3476196001284,598.3476196001284,0.19051876640878618,2.3576305708093566,598.5572313999292,598.3476196001284,"[-2.128083100076765, 0.17615369986742735]",,,,,,,,,,nunamh,001,fr,0,2022-05-17_10h36.21.712,Continuous,2022.1.1,36.284391215067195,
15,0,15,0,7,0,7,0,,,,,,,,2.1671118044005704,both,,,,1,72,[],0.00018706684932112694,0.19207436684519053,None,600.7317600999959,600.7317600999959,0.19207436684519053,2.359186171245761,600.9422532999888,600.7317600999959,,,,,,,,,,,nunamh,001,fr,0,2022-05-17_10h36.21.712,Continuous,2022.1.1,36.284391215067195,
16,0,16,0,0,0,0,0,,,,,,605.8521642000414,None,2.1329149740013893,none,560.0,0.5939010891479473,6.6478233543001e-05,0,41,[],0.011202966794371605,None,None,606.887513200054,None,0.22292996663600206,2.3558449406373914,607.1042313000653,None,,603.1106018000282,None,"[0.3333333333333333, 0.5833333333333334, 0.5833333333333334, 0.16666666666666666, 0.3333333333333333, 0.16666666666666666, 0.16666666666666666, 0.16666666666666666, 0.5833333333333334, 0.16666666666666666, 0.3333333333333333, 0.3333333333333333, 0.5833333333333334, 0.3333333333333333, 0.16666666666666666]",,,,,,,nunamh,001,fr,0,2022-05-17_10h36.21.712,Continuous,2022.1.1,36.284391215067195,
16,0,16,0,1,0,1,0,,,,,,,,2.0663223658722645,none,792.0,-1.9977122930470315,3.0773887737052304e-05,0,42,[],0.011709933169186115,None,None,609.2507933999877,609.2507933999877,0.2145380333531648,2.2808603992254293,609.4740283000283,609.2507933999877,,,,,,,,,,,nunamh,001,fr,0,2022-05-17_10h36.21.712,Continuous,2022.1.1,36.284391215067195,
16,0,16,0,2,0,2,0,,,,,,,,2.032477533921381,none,,,,1,42,[],0.01540413312613964,None,None,611.5411171000451,611.5411171000451,0.22274783323518932,2.2552253671565703,611.7611456001177,611.5411171000451,,,,,,,,,,,nunamh,001,fr,0,2022-05-17_10h36.21.712,Continuous,2022.1.1,36.284391215067195,
16,0,16,0,3,0,3,0,,,,,,,,1.0879141389264775,none,706.0,-0.9176753253548169,4.003836081444985e-05,0,43,[],0.0006668667774647474,None,None,613.7992209999356,613.7992209999356,0.21552816685289145,1.303442305779369,614.0273311999626,613.7992209999356,,,,,,,,,,,nunamh,001,fr,0,2022-05-17_10h36.21.712,Continuous,2022.1.1,36.284391215067195,
16,0,16,0,4,0,4,0,,,,,,,,2.212937964087578,none,297.0,0.9383336267581557,0.00013111672185329263,0,44,[],0.014071633573621511,None,None,615.1187982999254,615.1187982999254,0.2326165335252881,2.445554497612866,615.3507692001294,615.1187982999254,,,,,,,,,,,nunamh,001,fr,0,2022-05-17_10h36.21.712,Continuous,2022.1.1,36.284391215067195,
16,0,16,0,5,0,5,0,,,,,,,,1.0331895089380738,none,236.0,3.708336975389006,0.00029871294652230305,0,45,[],0.014896433567628264,None,None,617.5653109000996,617.5653109000996,0.2245942335575819,1.2577837424956557,617.7862698999234,617.5653109000996,,,,,,,,,,,nunamh,001,fr,0,2022-05-17_10h36.21.712,Continuous,2022.1.1,36.284391215067195,
16,0,16,0,6,0,6,0,,,,,,,,1.6142761358371622,none,140.0,5.39431791752186,0.0010963826547537637,0,46,[],0.0009382665157318115,0.18497266666963696,None,618.8305726000108,618.8305726000108,0.18497266666963696,1.7992488025067992,619.0308101000264,618.8305726000108,,,,,,,,,,,nunamh,001,fr,0,2022-05-17_10h36.21.712,Continuous,2022.1.1,36.284391215067195,
16,0,16,0,7,0,7,0,,,,,,,,1.5687364324469486,none,125.0,-2.0,0.0005740768107484417,0,47,[],0.013760933419689536,None,None,620.65163940005,620.65163940005,0.22170263342559338,1.790439065872542,620.8731706000399,620.65163940005,,,,,,,,,,,nunamh,001,fr,0,2022-05-17_10h36.21.712,Continuous,2022.1.1,36.284391215067195,
16,0,16,0,8,0,8,0,,,,,,,,1.2807859451061214,none,374.0,-1.9735330236610418,6.637282179488885e-05,0,48,[],0.014068333432078362,None,None,622.4440749001224,622.4440749001224,0.21982643334195018,1.5006123784480716,622.6667959000915,622.4440749001224,,,,,,,,,,,nunamh,001,fr,0,2022-05-17_10h36.21.712,Continuous,2022.1.1,36.284391215067195,
16,0,16,0,9,0,9,0,,,,,,,,2.8555145438051044,none,210.0,4.846432134988613,0.0004295288977288255,0,49,[],0.0015211666468530893,None,None,623.9527086999733,623.9527086999733,0.21671456657350063,3.072229110378605,624.1773902999703,623.9527086999733,,,,,,,,,,,nunamh,001,fr,0,2022-05-17_10h36.21.712,Continuous,2022.1.1,36.284391215067195,
17,0,17,0,0,0,0,0,,,,,0.3333333333333333,632.6856186999939,None,1.3719991809257703,frequency,6964.0,0.43556953971039647,0.000157856177314531,0,60,[],0.011723566567525268,None,None,633.7222184001002,None,0.23480076645500958,1.60679994738078,633.9476221001241,None,,627.0362810001243,None,,,,,,,,nunamh,001,fr,0,2022-05-17_10h36.21.712,Continuous,2022.1.1,36.284391215067195,
17,0,17,0,1,0,1,0,,,,,,,,2.019527730518825,frequency,5527.0,-2.588284934343772,9.895910468100385e-05,0,61,[],0.014256433583796024,None,"['space', 'space']",635.3215010000858,635.3215010000858,0.2225300334393978,2.242057763958223,635.5420888001099,635.3215010000858,"[-1.246199700050056, 0.2112340999301523]",,,,,,,,,,nunamh,001,fr,0,2022-05-17_10h36.21.712,Continuous,2022.1.1,36.284391215067195,
17,0,17,0,2,0,2,0,,,,,,,,1.9962121762710716,frequency,4387.0,-9.4899426849114,3.7079390070005886e-05,0,62,[],0.0015201664064079523,0.1858330664690584,['space'],637.5664747001138,637.5664747001138,0.1858330664690584,2.18204524274013,637.7581474001054,637.5664747001138,[-0.699247500160709],,,,,,,,,,nunamh,001,fr,0,2022-05-17_10h36.21.712,Continuous,2022.1.1,36.284391215067195,
17,0,17,0,3,0,3,0,,,,,,,,2.8009278581745445,frequency,3482.0,-0.47637095461097,7.08527756226414e-05,0,63,[],0.01149793341755867,None,None,639.7643224999774,639.7643224999774,0.21414873329922557,3.01507659147377,639.9909829001408,639.7643224999774,,,,,,,,,,,nunamh,001,fr,0,2022-05-17_10h36.21.712,Continuous,2022.1.1,36.284391215067195,
17,0,17,0,4,0,4,0,,,,,,,,1.8158208594824417,frequency,2764.0,3.883540343856863,0.00010866688512289439,0,64,[],0.0119679335039109,None,"['space', 'space']",642.8008544999175,642.8008544999175,0.21380773349665105,2.0296285929790927,643.0227236000355,642.8008544999175,"[-2.725592899834737, -0.7967733999248594]",,,,,,,,,,nunamh,001,fr,0,2022-05-17_10h36.21.712,Continuous,2022.1.1,36.284391215067195,
17,0,17,0,5,0,5,0,,,,,,,,2.9115045394567947,frequency,2194.0,3.2297590927028623,0.00011474442709590016,0,65,[],0.01603183359839022,None,None,644.8432221000548,644.8432221000548,0.2311143334954977,3.1426188729522924,645.0649323000107,644.8432221000548,,,,,,,,,,,nunamh,001,fr,0,2022-05-17_10h36.21.712,Continuous,2022.1.1,36.284391215067195,
17,0,17,0,6,0,6,0,,,,,,,,2.320929132500444,frequency,1741.0,1.0,7.081858306732455e-05,0,66,[],0.013373433379456401,None,None,647.9807802001014,647.9807802001014,0.23455943330191076,2.5554885658023547,648.2139755000826,647.9807802001014,,,,,,,,,,,nunamh,001,fr,0,2022-05-17_10h36.21.712,Continuous,2022.1.1,36.284391215067195,
17,0,17,0,7,0,7,0,,,,,,,,2.314577856450377,frequency,1382.0,2.636059423993732,6.939770454609222e-05,0,67,[],0.014007133431732655,None,None,650.5342619000003,650.5342619000003,0.21648383350111544,2.5310616899514926,650.7536268001422,650.5342619000003,,,,,,,,,,,nunamh,001,fr,0,2022-05-17_10h36.21.712,Continuous,2022.1.1,36.284391215067195,
17,0,17,0,8,0,8,0,,,,,,,,2.000211860241028,frequency,,,,1,67,[],0.012593033257871866,None,None,653.077937199967,653.077937199967,0.2146051332820207,2.2148169935230486,653.3056497001089,653.077937199967,,,,,,,,,,,nunamh,001,fr,0,2022-05-17_10h36.21.712,Continuous,2022.1.1,36.284391215067195,
17,0,17,0,9,0,9,0,,,,,,,,1.8584737911971847,frequency,871.0,-0.1293991772812259,3.9788828881366795e-05,0,68,[],0.016075833467766643,None,None,655.3054978,655.3054978,0.23031213344074786,2.0887859246379326,655.5295518001076,655.3054978,,,,,,,,,,,nunamh,001,fr,0,2022-05-17_10h36.21.712,Continuous,2022.1.1,36.284391215067195,
17,0,17,0,10,0,10,0,,,,,,,,2.394289702717262,frequency,691.0,0.9427767615411061,5.106816741076508e-05,0,69,[],0.014757333556190133,None,None,657.3894931999967,657.3894931999967,0.21428413363173604,2.608573836348998,657.6087585000787,657.3894931999967,,,,,,,,,,,nunamh,001,fr,0,2022-05-17_10h36.21.712,Continuous,2022.1.1,36.284391215067195,
17,0,17,0,11,0,11,0,,,,,,,,2.3950806399637488,frequency,548.0,1.15892095714191,7.308562408981945e-05,0,70,[],0.015797033440321684,None,['space'],660.0061518999282,660.0061518999282,0.22387343342415988,2.6189540733879086,660.2291401999537,660.0061518999282,[-2.1467497998382896],,,,,,,,,,nunamh,001,fr,0,2022-05-17_10h36.21.712,Continuous,2022.1.1,36.284391215067195,
17,0,17,0,12,0,12,0,,,,,,,,1.0106034371379145,frequency,435.0,2.889867858784417,0.00010427914521038709,0,71,[],0.013894433388486505,None,['space'],662.6308089001104,662.6308089001104,0.22039123345166445,1.230994670589579,662.8488302000333,662.6308089001104,[-2.3227538000792265],,,,,,,,,,nunamh,001,fr,0,2022-05-17_10h36.21.712,Continuous,2022.1.1,36.284391215067195,
17,0,17,0,13,0,13,0,,,,,,,,1.329654514281918,frequency,345.0,5.822982604501339,0.00017757922394084786,0,72,[],0.014256333466619253,None,['space'],663.8620995001402,663.8620995001402,0.21762763359583914,1.5472821478777572,664.0831077001058,663.8620995001402,[-0.9627272000070661],,,,,,,,,,nunamh,001,fr,0,2022-05-17_10h36.21.712,Continuous,2022.1.1,36.284391215067195,
17,0,17,0,14,0,14,0,,,,,,,,2.930116887774231,frequency,274.0,1.8806026087626675,0.00017639752082373062,0,73,[],0.015453533502295613,None,['space'],665.4193504001014,665.4193504001014,0.24599793343804777,3.1761148212122787,665.6594054999296,665.4193504001014,[-0.10364149999804795],,,,,,,,,,nunamh,001,fr,0,2022-05-17_10h36.21.712,Continuous,2022.1.1,36.284391215067195,
18,0,18,0,0,0,0,0,,,,,,672.6358618000522,None,1.4204241623419278,time,,,,1,66,[],0.012894566403701901,None,None,673.6824004999362,None,0.2052853663917631,1.625709528733691,673.8915119001176,None,,668.5923985999543,None,"[0.3333333333333333, 0.3333333333333333, 0.16666666666666666, 0.16666666666666666, 0.3333333333333333, 0.3333333333333333, 0.5833333333333334, 0.16666666666666666, 0.3333333333333333, 0.3333333333333333, 0.16666666666666666, 0.16666666666666666, 0.5833333333333334, 0.16666666666666666, 0.3333333333333333]",,,,,,,nunamh,001,fr,0,2022-05-17_10h36.21.712,Continuous,2022.1.1,36.284391215067195,
18,0,18,0,1,0,1,0,,,,,,,,1.4204241623419278,time,1888.0,-10.05387820462027,2.1921948874286435e-05,0,67,[],0.01491293334402144,None,None,675.311829800019,675.311829800019,0.21968803345225751,1.6401121957941853,675.5385958999395,675.311829800019,,,,,,,,,,,nunamh,001,fr,0,2022-05-17_10h36.21.712,Continuous,2022.1.1,36.284391215067195,
18,0,18,0,2,0,2,0,,,,,,,,1.4204241623419278,time,1499.0,-13.45480896009337,1.0267216486006405e-05,0,68,[],0.014127333415672183,None,None,676.9644474999513,676.9644474999513,0.214886833447963,1.6353109957898908,677.1800001999363,676.9644474999513,,,,,,,,,,,nunamh,001,fr,0,2022-05-17_10h36.21.712,Continuous,2022.1.1,36.284391215067195,
18,0,18,0,3,0,3,0,,,,,,,,1.4204241623419278,time,5657.0,-15.291514683974093,2.209984747412729e-05,0,69,[],0.014227533480152488,None,None,678.6118073000107,678.6118073000107,0.2217793334275484,1.6422034957694762,678.8317303000949,678.6118073000107,,,,,,,,,,,nunamh,001,fr,0,2022-05-17_10h36.21.712,Continuous,2022.1.1,36.284391215067195,
18,0,18,0,4,0,4,0,,,,,,,,1.4204241623419278,time,3776.0,-14.130178970723962,1.5726240382355204e-05,0,70,[],0.015946733532473445,None,['space'],680.2630686000921,680.2630686000921,0.220068933442235,1.6404930957841628,680.486439500004,680.2630686000921,[-1.099613199941814],,,,,,,,,,nunamh,001,fr,0,2022-05-17_10h36.21.712,Continuous,2022.1.1,36.284391215067195,
18,0,18,0,5,0,5,0,,,,,,,,1.4204241623419278,time,2997.0,-5.717151150627133,2.8483067737046435e-05,0,71,[],0.01269729994237423,None,None,681.9289381001145,681.9289381001145,0.23300200002267957,1.6534261623646074,682.1618854999542,681.9289381001145,,,,,,,,,,,nunamh,001,fr,0,2022-05-17_10h36.21.712,Continuous,2022.1.1,36.284391215067195,
18,0,18,0,6,0,6,0,,,,,,,,1.4204241623419278,time,8000.0,-16.0,2.8771996866857863e-05,0,72,[],0.014272733591496944,None,None,683.5830300999805,683.5830300999805,0.21168043348006904,1.6321045958219969,683.8037282000296,683.5830300999805,,,,,,,,,,,nunamh,001,fr,0,2022-05-17_10h36.21.712,Continuous,2022.1.1,36.284391215067195,
18,0,18,0,7,0,7,0,,,,,,,,1.4204241623419278,time,2379.0,2.2892043467067618,0.00010830595413433626,0,73,[],0.015302033396437764,None,None,685.2346022001002,685.2346022001002,0.22052823356352746,1.6409523959054553,685.4545954000205,685.2346022001002,,,,,,,,,,,nunamh,001,fr,0,2022-05-17_10h36.21.712,Continuous,2022.1.1,36.284391215067195,
18,0,18,0,8,0,8,0,,,,,,,,1.4204241623419278,time,6350.0,-12.039890824364006,3.2885854984454004e-05,0,74,[],0.0004596663638949394,None,None,686.8845480999444,686.8845480999444,0.20543756638653576,1.6258617287284636,687.0977696001064,686.8845480999444,,,,,,,,,,,nunamh,001,fr,0,2022-05-17_10h36.21.712,Continuous,2022.1.1,36.284391215067195,
19,0,19,0,0,0,0,0,,,,,0.5833333333333334,694.7623358001001,None,1.3168377736143364,frequency,8000.0,-4.0,0.00011454338263838867,0,74,[],0.012744866777211428,None,None,695.7879302001093,None,0.2154468665830791,1.5322846401974155,696.0095522999763,None,,688.5206007000525,None,,,,,,,,nunamh,001,fr,0,2022-05-17_10h36.21.712,Continuous,2022.1.1,36.284391215067195,
19,0,19,0,1,0,1,0,,,,,,,,2.2495655838586295,frequency,5339.0,-13.092914029223031,3.1062873632496595e-05,0,75,[],0.0006628665141761303,None,None,697.3290844000876,697.3290844000876,0.20328166638500988,2.4528472502436394,697.5491883000359,697.3290844000876,,,,,,,,,,,nunamh,001,fr,0,2022-05-17_10h36.21.712,Continuous,2022.1.1,36.284391215067195,
19,0,19,0,2,0,2,0,,,,,,,,2.70288043927557,frequency,3563.0,-3.0641351166375848,5.3597141203156916e-05,0,76,[],0.01382553344592452,0.2115132336039096,['space'],699.8012612999883,699.8012612999883,0.2115132336039096,2.9143936728794797,700.0208103000186,699.8012612999883,[-2.09366949996911],,,,,,,,,,nunamh,001,fr,0,2022-05-17_10h36.21.712,Continuous,2022.1.1,36.284391215067195,
19,0,19,0,3,0,3,0,,,,,,,,1.870637306355832,frequency,2378.0,-1.0959834340745775,7.332924878449229e-05,0,77,[],0.01360443327575922,None,['space'],702.7198117000517,702.7198117000517,0.2143563332501799,2.0849936396060116,702.9421812000219,702.7198117000517,[-2.459000999806449],,,,,,,,,,nunamh,001,fr,0,2022-05-17_10h36.21.712,Continuous,2022.1.1,36.284391215067195,
19,0,19,0,4,0,4,0,,,,,,,,1.3682739909726525,frequency,1587.0,3.3021869752665,8.139401571238909e-05,0,78,[],0.014059133362025023,None,None,704.8236327001359,704.8236327001359,0.2178497335407883,1.5861237245134407,705.0378831000999,704.8236327001359,,,,,,,,,,,nunamh,001,fr,0,2022-05-17_10h36.21.712,Continuous,2022.1.1,36.284391215067195,
19,0,19,0,5,0,5,0,,,,,,,,2.8545580702857523,frequency,1059.0,-1.8492571863391882,3.759924499573251e-05,0,79,[],0.01381243346258998,None,None,706.4160394999199,706.4160394999199,0.21374343358911574,3.068301503874868,706.635406400077,706.4160394999199,,,,,,,,,,,nunamh,001,fr,0,2022-05-17_10h36.21.712,Continuous,2022.1.1,36.284391215067195,
19,0,19,0,6,0,6,0,,,,,,,,2.1212042509616373,frequency,707.0,-1.503278944588002,3.735419944660397e-05,0,80,[],0.014845833415165544,None,None,709.4988216001075,709.4988216001075,0.2127864332869649,2.3339906842486022,709.7172173999716,709.4988216001075,,,,,,,,,,,nunamh,001,fr,0,2022-05-17_10h36.21.712,Continuous,2022.1.1,36.284391215067195,
19,0,19,0,7,0,7,0,,,,,,,,1.376127938006562,frequency,472.0,-1.7194504907530703,5.978723494672449e-05,0,81,[],0.013730333419516683,0.21075113327242434,None,711.8491374000441,711.8491374000441,0.21075113327242434,1.5868790712789864,712.0665907000657,711.8491374000441,,,,,,,,,,,nunamh,001,fr,0,2022-05-17_10h36.21.712,Continuous,2022.1.1,36.284391215067195,
19,0,19,0,8,0,8,0,,,,,,,,2.310424955774132,frequency,,,,1,81,[],0.015908533474430442,None,None,713.4469858999364,713.4469858999364,0.22231333353556693,2.532738289309699,713.6671947999857,713.4469858999364,,,,,,,,,,,nunamh,001,fr,0,2022-05-17_10h36.21.712,Continuous,2022.1.1,36.284391215067195,
20,0,20,0,0,0,0,0,,,,,0.5833333333333334,721.7913361999672,None,2.7107189017592175,frequency,8000.0,-3.0,0.00012851978913844324,0,82,['frequency'],0.012624466558918357,0.20974176656454802,None,722.8306682999246,None,0.20974176656454802,2.9204606683237655,723.0409558000974,None,,715.9759963001125,None,,"{'estimation': [[125.0, -2.7319874460101974], [130.1705495018469, -2.0], [133.9716828170366, -1.5230764736888434], [136.66796664269987, -1.0], [142.1721853569412, 0.0], [143.5872943746293, 0.23919642994017054], [147.08342793488598, 1.0], [151.85021348932852, 2.0], [153.89305166811442, 2.404622675000364], [156.64806161214247, 3.0], [161.32888939891637, 4.0], [164.93848884661162, 4.73312301182988], [166.35010416256384, 5.0], [171.6476213162761, 6.0], [176.77669529663666, 6.929854863621337], [177.26798530232116, 7.0], [184.321274803324, 8.0], [189.46457081379947, 8.703101513222332], [192.9702951707168, 9.0], [203.0630990890585, 9.827330572791771], [209.6870126446821, 10.0], [217.6376408240306, 10.200670717987851], [226.57120673107272, 10.0], [233.25824788420132, 9.85793875723371], [249.4039019442019, 9.0], [249.99999999999923, 8.969698776542833], [264.57321924426884, 8.0], [267.94336563407256, 7.783542195979686], [280.1535906882845, 7.0], [287.1745887492579, 6.560764891772382], [298.0818605131042, 6.0], [307.78610333622805, 5.512146457068884], [322.63894211908496, 5.0], [329.87697769322244, 4.756819533342389], [353.55339059327247, 4.3154611457934795], [378.929141627598, 4.126047330481055], [406.12619817811606, 4.095833139587335], [435.2752816480601, 4.141101099625354], [466.5164957684015, 4.218475018612036], [499.9999999999975, 4.334080078931505], [535.8867312681438, 4.53081067725865], [574.3491774985143, 4.863669513802235], [585.1618150816267, 5.0], [615.5722066724546, 5.376826313676245], [654.9276838719882, 6.0], [659.7539553864432, 6.075119655965207], [707.1067811865431, 6.932556240944471], [710.6528840838256, 6.999999999999999], [757.8582832551941, 7.887512272074218], [764.1743576319788, 8.0], [812.252396356229, 8.854068038060563], [821.9046989252831, 9.0], [870.5505632961181, 9.736040905398843], [894.0550550077435, 10.0], [933.0329915368008, 10.437067848246656], [999.9999999999926, 10.869219815212217], [1071.773462536285, 10.971360187415302], [1148.698354997026, 10.713063079293509], [1231.1444133449063, 10.10553527936121], [1240.9059465046516, 10.0], [1319.5079107728832, 9.21087433681993], [1336.9646542594853, 9.0], [1414.2135623730828, 8.132740120233969], [1425.5216028669454, 8.0], [1515.7165665103846, 7.005324317316617], [1516.2490796641441, 7.0], [1621.0310896788346, 5.999999999999999], [1624.5047927124563, 5.968354613039177], [1741.1011265922318, 5.134664556293979], [1769.570638500573, 5.0], [1866.065983073597, 4.560303073800251], [1999.9999999999827, 4.229170015777616], [2143.5469250725646, 4.038568530102137], [2169.3151030733584, 4.0], [2297.3967099940432, 3.8176451256226382], [2462.2888266898062, 3.35774647847268], [2531.288853889869, 3.0], [2639.01582154576, 2.4563919128292886], [2696.858346669676, 2.0], [2825.944791160008, 1.0], [2828.427124746162, 0.981195527745577], [2923.413839453045, 0.0], [3022.741350798757, -1.0], [3031.4331330207615, -1.0848173051099848], [3108.4211771985642, -2.0], [3193.791774472767, -3.0], [3249.0095854249043, -3.614264349783594], [3281.1557522515373, -4.0], [3364.1697183111514, -5.0], [3450.676863633916, -6.0], [3482.2022531844555, -6.344679847392895], [3544.0534933644235, -7.0], [3639.255280470259, -8.0], [3732.1319661471844, -8.916955572316333], [3742.7134790684995, -9.0], [3870.747959900537, -10.0], [3999.9999999999504, -10.96174897618052], [4008.768432280381, -11.0], [4243.565517611138, -12.0], [4287.093850145118, -12.17890042918006], [4594.793419988081, -12.41326173533529], [4782.959909068714, -12.0], [4924.577653379601, -11.698732074661958], [5092.035727013197, -11.0], [5278.031643091506, -10.248967613462298], [5328.09684510729, -10.0], [5530.396655929024, -9.0], [5656.854249492303, -8.395834444700867], [5741.612317673597, -8.0], [5956.05989029084, -7.0], [6062.866266041508, -6.515267311798436], [6204.071686887118, -6.0], [6479.5358777233505, -5.0], [6498.019170849792, -4.933769494886053], [6902.447736416134, -4.0], [6964.404506368894, -3.8568789937831003], [7464.2639322943505, -3.343511929690644], [7999.999999999892, -3.308925595763597]], 'plus_line': [[125.0, -9.579813273537756], [127.78120764275003, -9.0], [132.83060072787774, -8.0], [133.9716828170366, -7.791749220786395], [137.4943159016311, -7.0], [141.9605077321004, -6.0], [143.5872943746293, -5.655939706400915], [146.4248890727429, -5.0], [150.64977403792517, -4.0], [153.89305166811442, -3.2475374933825036], [155.02363662142577, -3.0], [159.528355514674, -2.0], [163.9027077550859, -1.0], [164.93848884661162, -0.7749376529090934], [169.08824766870947, 0.0], [174.23204579229105, 1.0], [176.77669529663666, 1.481863808044353], [180.45771872293292, 2.0], [187.4613420768919, 3.0], [189.46457081379947, 3.2775920271748933], [197.94402469492618, 4.0], [203.0630990890585, 4.421200319470975], [217.6376408240306, 4.843499168211638], [233.25824788420132, 4.555596471391043], [244.02465062895908, 4.0], [249.99999999999937, 3.6983746422715953], [260.1248103558664, 3.0], [267.94336563407256, 2.482494721961767], [274.92990534019276, 2.0], [287.1745887492579, 1.1849183176759834], [290.466270856869, 1.0], [307.78610333622805, 0.04871920222101567], [309.0851179040316, 0.0], [329.87697769322244, -0.7735454798448864], [341.8277073668574, -1.0], [353.55339059327247, -1.2254715532028624], [378.929141627598, -1.3699451815219978], [406.12619817811606, -1.3156998661366002], [435.2752816480601, -1.182845508551758], [466.5164957684015, -1.055386258354658], [484.20700494141664, -1.0], [499.9999999999975, -0.9557990287204534], [535.8867312681438, -0.830832836078095], [574.3491774985143, -0.5839043999920217], [615.5722066724546, -0.13303716795943718], [624.2970133435942, 0.0], [659.7539553864424, 0.5095167236542582], [688.7994122502581, 1.0], [707.1067811865431, 1.2972540926629068], [749.9078405194072, 2.0], [757.8582832551941, 2.127483961478562], [812.2523963562301, 2.907084931054874], [820.2199670031312, 3.0], [870.5505632961192, 3.570977055436491], [922.16541524766, 4.0], [933.0329915368008, 4.087197004956765], [999.9999999999926, 4.385279500278227], [1071.773462536285, 4.444365741872329], [1148.698354997026, 4.246029825266541], [1193.1369742479812, 4.0], [1231.1444133449047, 3.7937019260818934], [1319.5079107728832, 3.1201277425845353], [1332.0088152525652, 3.0], [1414.2135623730828, 2.25584132850568], [1439.6047854134415, 2.0], [1515.7165665103846, 1.2735571636072036], [1544.8527966587624, 1.0], [1624.5047927124563, 0.27911634566186194], [1661.838988743282, 0.0], [1741.1011265922318, -0.5840119547197598], [1828.1222859389327, -1.0], [1866.065983073597, -1.1830577859897775], [1999.9999999999777, -1.4990095024048946], [2143.5469250725646, -1.6228318262432495], [2297.3967099940432, -1.7749703469593099], [2380.6351976594524, -2.0], [2462.2888266898062, -2.2232888149086643], [2605.9543597376005, -3.0], [2639.01582154576, -3.175278382804801], [2736.1846788428, -4.0], [2828.427124746159, -4.732092321109835], [2852.847613240754, -5.0], [2944.9636298418845, -6.0], [3031.4331330207615, -6.846075510677257], [3043.8896139279977, -7.0], [3124.24699261037, -8.0], [3213.46282430446, -9.0], [3249.0095854249043, -9.367893440439332], [3299.672330215223, -10.0], [3383.3597454240726, -11.0], [3479.846035619974, -12.0], [3482.2022531844555, -12.023352139444341], [3571.154726430344, -13.0], [3671.890509885024, -14.0], [3732.1319661471844, -14.53839317166014], [3789.5815099041033, -15.0], [3920.457722204554, -16.0], [3999.9999999999504, -16.551012190511546], [4102.560280746366, -17.0], [4287.093850145118, -17.764387524026446], [4594.793419988081, -17.98876024158396], [4924.577653379601, -17.25317093736934], [4983.700908620684, -17.0], [5220.115674817149, -16.0], [5278.031643091506, -15.762294736591576], [5436.212713711652, -15.0], [5637.389566241552, -14.0], [5656.854249492303, -13.906661722650258], [5865.007461146235, -13.0], [6062.866266041508, -12.103309385783689], [6094.683304057868, -11.999999999999998], [6400.395504003297, -11.0], [6498.019170849792, -10.677216425026819], [6868.945722385473, -10.0], [6964.404506368902, -9.826281985380676], [7464.2639322943505, -9.667456386772374], [7811.496291425605, -10.0], [7999.999999999882, -10.198039567038549]], 'minus_line': [[125.0, 3.7501710450065535], [128.12122980492285, 4.0], [133.9716828170366, 4.424474634001158], [137.48732586300378, 5.0], [143.5872943746293, 5.891981128234362], [144.09379227053782, 6.0], [148.8222437167478, 7.0], [153.8930516681143, 7.946571589220066], [154.1329488869183, 8.0], [158.54862641890938, 9.0], [163.39919225158178, 10.0], [164.93848884661162, 10.297867250532168], [168.382390573267, 11.0], [173.51273673283188, 12.0], [176.77669529663655, 12.587157208440725], [179.46177040503184, 13.0], [186.13965056238268, 14.0], [189.46457081379947, 14.468537083265664], [195.4537797193, 15.0], [203.0630990890584, 15.65247560666857], [217.6376408240306, 15.994911450992271], [233.25824788420132, 15.582931295786604], [243.0086374431957, 15.0], [249.99999999999937, 14.60531465107373], [258.6845582290238, 14.0], [267.94336563407256, 13.371986288097892], [273.73301479840154, 13.0], [287.1745887492579, 12.151777980468555], [290.18703908319026, 12.0], [307.78610333622805, 11.141598519703406], [311.9514877981382, 11.0], [329.87697769322244, 10.42581112403101], [352.1601311314326, 10.0], [353.55339059327247, 9.975439128210745], [378.929141627598, 9.756402050155472], [406.12619817811606, 9.664719228669895], [435.2752816480601, 9.65011920416133], [466.5164957684015, 9.707874743669706], [499.9999999999975, 9.865403252945528], [516.6316952888205, 10.0], [535.8867312681438, 10.16405994165868], [574.3491774985137, 10.616811665800999], [600.5818042489458, 11.0], [615.5722066724546, 11.223743803156932], [659.7539553864432, 11.99534305756572], [659.9814203698069, 12.0], [707.1067811865431, 12.951994758536845], [709.2885978633392, 13.0], [755.2468772203358, 14.0], [757.8582832551941, 14.055902337399269], [801.353303572377, 15.0], [812.2523963562301, 15.232041557314218], [852.4041854592418, 16.0], [870.5505632961181, 16.343659685532486], [915.9307146425147, 17.0], [933.0329915368008, 17.248291570885442], [999.9999999999926, 17.821819415243045], [1071.773462536285, 17.96814644938521], [1148.698354997026, 17.651013870902183], [1215.5241416481217, 17.0], [1231.1444133449063, 16.8591998724613], [1295.88110074967, 16.0], [1319.5079107728832, 15.706190913957776], [1367.78282039879, 15.0], [1414.2135623730828, 14.35505676911136], [1440.1552545269224, 14.0], [1515.7165665103846, 13.006883329233558], [1516.3379510642499, 13.0], [1611.06972195317, 12.0], [1624.5047927124563, 11.864797850598604], [1740.2646142422818, 11.0], [1741.1011265922318, 10.994079343971341], [1866.065983073597, 10.414982608009288], [1999.9999999999777, 10.027009502536627], [2013.2892307877648, 10.0], [2143.5469250725646, 9.764236999308519], [2297.396709994046, 9.476939279392546], [2457.4691192319087, 9.0], [2462.2888266898094, 8.98673824815464], [2639.01582154576, 8.129458200654875], [2656.2233428219815, 8.0], [2789.6892887996814, 7.0], [2828.427124746159, 6.711489562225606], [2900.5557421269777, 6.0], [2997.5091346464997, 5.0], [3031.4331330207615, 4.655893152562471], [3088.938452074443, 4.0], [3171.87560591752, 3.0], [3249.0095854249043, 2.0539826653092494], [3253.700730024135, 2.0], [3339.219226541639, 1.0], [3418.751167467721, 0.0], [3482.2022531844555, -0.7870285834386961], [3503.094692420327, -1.0], [3598.3998422326354, -2.0], [3688.631947561655, -3.0], [3732.1319661471844, -3.4644656736942583], [3802.544266224427, -4.0], [3929.2649981397103, -5.0], [3999.9999999999504, -5.553322663697054], [4106.693311417816, -6.0], [4287.093850145118, -6.747680841903828], [4594.793419988081, -6.930835500244756], [4924.577653379601, -6.1565363863265254], [4960.0539069624, -6.0], [5190.025212614004, -5.0], [5278.031643091506, -4.636848022192372], [5396.462415166624, -4.0], [5592.3817426418, -3.0], [5656.854249492303, -2.687724366710613], [5788.78528501265, -2.0], [5990.8037667984445, -1.0], [6062.866266041508, -0.6614548607689147], [6220.800329554138, 0.0], [6473.001390208423, 1.0], [6498.019170849792, 1.096846974151974], [6819.740091698091, 2.0], [6964.404506368894, 2.39408804155602], [7341.487223319141, 3.0], [7464.2639322943505, 3.201687454760265], [7999.999999999882, 3.7214403620936642]]}",,,,,,nunamh,001,fr,0,2022-05-17_10h36.21.712,Continuous,2022.1.1,36.284391215067195,
20,0,20,0,1,0,1,0,,,,,,,,1.3549614948470572,frequency,5339.0,-6.913039516257657,6.327546648210806e-05,0,83,['frequency'],0.012202633311972022,None,None,725.7508587001357,725.7508587001357,0.21142173325642943,1.5663832281034866,725.9680165001191,725.7508587001357,,,,,,,,,,,nunamh,001,fr,0,2022-05-17_10h36.21.712,Continuous,2022.1.1,36.284391215067195,
20,0,20,0,2,0,2,0,,,,,,,,2.1124837778249455,frequency,3563.0,-3.0,5.3994357969951626e-05,0,84,['frequency'],0.012832233682274818,None,['space'],727.3346148000564,727.3346148000564,0.20868533360771835,2.321169111432664,727.5490477001294,727.3346148000564,[-1.274286000058055],,,,,,,,,,nunamh,001,fr,0,2022-05-17_10h36.21.712,Continuous,2022.1.1,36.284391215067195,
20,0,20,0,3,0,3,0,,,,,,,,1.650560853453262,frequency,,,,1,84,['frequency'],0.012781133176758885,None,['space'],729.6719722000416,729.6719722000416,0.2065198333002627,1.8570806867535248,729.8861569999717,729.6719722000416,[-1.8840118998195976],,,,,,,,,,nunamh,001,fr,0,2022-05-17_10h36.21.712,Continuous,2022.1.1,36.284391215067195,
20,0,20,0,4,0,4,0,,,,,,,,2.3588279988079233,frequency,1587.0,-1.5737500368185664,4.642967300891947e-05,0,85,['frequency'],0.0009241665247827768,None,None,731.5472260001116,731.5472260001116,0.20703296642750502,2.5658609652354283,731.7703015001025,731.5472260001116,,,,,,,,,,,nunamh,001,fr,0,2022-05-17_10h36.21.712,Continuous,2022.1.1,36.284391215067195,
20,0,20,0,5,0,5,0,,,,,,,,2.7842217722630505,frequency,1059.0,0.2915390356126639,4.810818089774276e-05,0,86,['frequency'],0.012353033293038607,None,None,734.1380878000055,734.1380878000055,0.24366983328945935,3.02789160555251,734.378771699965,734.1380878000055,,,,,,,,,,,nunamh,001,fr,0,2022-05-17_10h36.21.712,Continuous,2022.1.1,36.284391215067195,
20,0,20,0,6,0,6,0,,,,,,,,2.2405377259407,frequency,707.0,-1.24847642380084,3.846622426932387e-05,0,87,['frequency'],0.012098633218556643,None,None,737.1654570000246,737.1654570000246,0.2104451332706958,2.450982859211396,737.3886337000877,737.1654570000246,,,,,,,,,,,nunamh,001,fr,0,2022-05-17_10h36.21.712,Continuous,2022.1.1,36.284391215067195,
20,0,20,0,7,0,7,0,,,,,,,,2.245893747589138,frequency,472.0,-0.04497720675033978,7.249901944400976e-05,0,88,['frequency'],0.008046433329582214,None,None,739.6406179000624,739.6406179000624,0.20614323345944285,2.4520369810485807,739.8605526001193,739.6406179000624,,,,,,,,,,,nunamh,001,fr,0,2022-05-17_10h36.21.712,Continuous,2022.1.1,36.284391215067195,
20,0,20,0,8,0,8,0,,,,,,,,1.333479022536011,frequency,315.0,-1.758650492703099,8.054479485192246e-05,0,89,['frequency'],0.011685033328831196,0.21038613328710198,None,742.1166324000806,742.1166324000806,0.21038613328710198,1.543865155823113,742.3328005000949,742.1166324000806,,,,,,,,,,,nunamh,001,fr,0,2022-05-17_10h36.21.712,Continuous,2022.1.1,36.284391215067195,
21,0,21,0,0,0,0,0,,,,,,749.0912949999329,None,2.3740248767682584,time,249.0,5.143310204321573,0.00030632775462490413,0,75,['frequency'],0.012657866580411792,None,None,750.129620200023,None,0.231774766696617,2.6057996434648754,750.3458364000544,None,,743.67217419995,None,"[0.3333333333333333, 0.16666666666666666, 0.16666666666666666, 0.16666666666666666, 0.3333333333333333, 0.16666666666666666, 0.5833333333333334, 0.3333333333333333, 0.3333333333333333, 0.3333333333333333, 0.16666666666666666, 0.3333333333333333, 0.16666666666666666, 0.3333333333333333, 0.5833333333333334]",,,,,,,nunamh,001,fr,0,2022-05-17_10h36.21.712,Continuous,2022.1.1,36.284391215067195,
21,0,21,0,1,0,1,0,,,,,,,,2.3740248767682584,time,125.0,4.0,0.0011454338263838868,0,76,['frequency'],0.012282933574169874,None,None,752.7251675999723,752.7251675999723,0.21150903357192874,2.585533910340187,752.9443842999171,752.7251675999723,,,,,,,,,,,nunamh,001,fr,0,2022-05-17_10h36.21.712,Continuous,2022.1.1,36.284391215067195,
21,0,21,0,2,0,2,0,,,,,,,,2.3740248767682584,time,222.0,4.70100078160457,0.00038200383288966534,0,77,['frequency'],0.012321433750912547,None,None,755.3300839001313,755.3300839001313,0.2094458336941898,2.583470710462448,755.5432371001225,755.3300839001313,,,,,,,,,,,nunamh,001,fr,0,2022-05-17_10h36.21.712,Continuous,2022.1.1,36.284391215067195,
21,0,21,0,3,0,3,0,,,,,,,,2.3740248767682584,time,,,,1,77,['frequency'],0.012453033123165369,None,['space'],757.9317197001074,757.9317197001074,0.21356063312850893,2.5875855098967673,758.1449442000594,757.9317197001074,[-2.318680699914694],,,,,,,,,,nunamh,001,fr,0,2022-05-17_10h36.21.712,Continuous,2022.1.1,36.284391215067195,
21,0,21,0,4,0,4,0,,,,,,,,2.3740248767682584,time,157.0,4.764049647396904,0.0007577182947469247,0,78,['frequency'],0.013962433440610766,None,['space'],760.531779800076,760.531779800076,0.21418363321572542,2.5882085099839838,760.7505662001204,760.531779800076,[-2.0484553000424057],,,,,,,,,,nunamh,001,fr,0,2022-05-17_10h36.21.712,Continuous,2022.1.1,36.284391215067195,
21,0,21,0,5,0,5,0,,,,,,,,2.3740248767682584,time,314.0,6.619371269696707,0.0002135890433920955,0,79,['frequency'],0.015436133369803429,None,"['space', 'space']",763.1325064001139,763.1325064001139,0.2199673333670944,2.5939922101353527,763.3515667999163,763.1325064001139,"[-2.264511700021103, 0.023423000006005168]",,,,,,,,,,nunamh,001,fr,0,2022-05-17_10h36.21.712,Continuous,2022.1.1,36.284391215067195,
21,0,21,0,6,0,6,0,,,,,,,,2.3740248767682584,time,470.0,4.0,0.00011566170219199333,0,80,['frequency'],0.0019809999503195286,None,['space'],765.7567604000214,765.7567604000214,0.1939739000517875,2.567998776820046,765.9737855000421,765.7567604000214,[-0.21632809983566403],,,,,,,,,,nunamh,001,fr,0,2022-05-17_10h36.21.712,Continuous,2022.1.1,36.284391215067195,
21,0,21,0,7,0,7,0,,,,,,,,2.3740248767682584,time,176.0,4.0867477620164605,0.0005648421802765006,0,81,['frequency'],0.01248203357681632,None,['space'],768.3604850999545,768.3604850999545,0.21677523339167237,2.5908001101599307,768.5857422000263,768.3604850999545,[0.0027216000016778708],,,,,,,,,,nunamh,001,fr,0,2022-05-17_10h36.21.712,Continuous,2022.1.1,36.284391215067195,
22,0,22,0,0,0,0,0,,,,,0.16666666666666666,773.6802638999652,None,2.720210259443232,both,8000.0,-13.0,4.064152580820497e-05,0,73,['frequency'],0.012855666456744075,None,['space'],774.7173554999754,None,0.21047196653671563,2.9306822259799477,774.9251192000229,None,[-2.529407000169158],770.9579378000926,None,,,,,,,,nunamh,001,fr,0,2022-05-17_10h36.21.712,Continuous,2022.1.1,36.284391215067195,
22,0,22,0,1,0,1,0,,,,,,,,2.720210259443232,both,7127.0,-10.895141699571525,4.423727797311433e-05,0,74,['frequency'],0.010891033569350839,None,None,777.6585840000771,777.6585840000771,0.2285933333914727,2.9488035928347047,777.8842078000307,777.6585840000771,,,,,,,,,,,nunamh,001,fr,0,2022-05-17_10h36.21.712,Continuous,2022.1.1,36.284391215067195,
22,0,22,0,2,0,2,0,,,,,,,,2.720210259443232,both,6349.0,-12.35901349402623,3.1692237368275976e-05,0,75,['frequency'],0.011740333633497357,None,None,780.6108128000051,780.6108128000051,0.21131673362106085,2.931526993064293,780.8285855001304,780.6108128000051,,,,,,,,,,,nunamh,001,fr,0,2022-05-17_10h36.21.712,Continuous,2022.1.1,36.284391215067195,
22,0,22,0,3,0,3,0,,,,,,,,2.720210259443232,both,5656.0,-13.290171569679297,2.7834346428502985e-05,0,76,['frequency'],0.011944233439862728,None,None,783.5543096999172,783.5543096999172,0.21020033350214362,2.9304105929453756,783.7764238000382,783.5543096999172,,,,,,,,,,,nunamh,001,fr,0,2022-05-17_10h36.21.712,Continuous,2022.1.1,36.284391215067195,
22,0,22,0,4,0,4,0,,,,,,,,2.720210259443232,both,,,,1,76,['frequency'],0.01543593336828053,None,['space'],786.5068020999897,786.5068020999897,0.22467063344083726,2.9448808928840693,786.7305970001034,786.5068020999897,[-2.6074345000088215],,,,,,,,,,nunamh,001,fr,0,2022-05-17_10h36.21.712,Continuous,2022.1.1,36.284391215067195,
22,0,22,0,5,0,5,0,,,,,,,,2.720210259443232,both,4489.0,-12.152799961083392,2.9021282016656073e-05,0,77,['frequency'],0.013795233331620693,None,None,789.4547294999938,789.4547294999938,0.2181708333082497,2.9383810927514817,789.6772759999149,789.4547294999938,,,,,,,,,,,nunamh,001,fr,0,2022-05-17_10h36.21.712,Continuous,2022.1.1,36.284391215067195,
22,0,22,0,6,0,6,0,,,,,,,,2.720210259443232,both,3999.0,-10.0439595558816,2.640469739062122e-05,0,78,['frequency'],0.010967133333906531,None,None,792.4092369000427,792.4092369000427,0.2130931334104389,2.933303392853671,792.6296125999652,792.4092369000427,,,,,,,,,,,nunamh,001,fr,0,2022-05-17_10h36.21.712,Continuous,2022.1.1,36.284391215067195,
22,0,22,0,7,0,7,0,,,,,,,,2.720210259443232,both,3563.0,-9.344486882453657,2.6009022918771435e-05,0,79,['frequency'],0.011851833667606115,None,None,795.355429999996,795.355429999996,0.21635613357648253,2.9365663930197146,795.5745932001155,795.355429999996,,,,,,,,,,,nunamh,001,fr,0,2022-05-17_10h36.21.712,Continuous,2022.1.1,36.284391215067195,
22,0,22,0,8,0,8,0,,,,,,,,2.720210259443232,both,3174.0,-2.3580034191966357,5.2931322068980594e-05,0,80,['frequency'],0.010976833757013083,None,None,798.307690900052,798.307690900052,0.21572563354857266,2.9359358929918047,798.5217466999311,798.307690900052,,,,,,,,,,,nunamh,001,fr,0,2022-05-17_10h36.21.712,Continuous,2022.1.1,36.284391215067195,
23,0,23,0,0,0,0,0,,,,,,821.7383366001304,None,2.5247249714322035,none,6350.0,-12.035331256176516,3.29031226067082e-05,0,50,['frequency'],0.012789166765287519,None,None,822.7701890000608,None,0.20771206659264863,2.732437038024852,822.9739864000585,None,,801.2560644999612,None,"[0.5833333333333334, 0.3333333333333333, 0.16666666666666666, 0.3333333333333333, 0.16666666666666666, 0.3333333333333333, 0.16666666666666666, 0.3333333333333333, 0.3333333333333333, 0.16666666666666666, 0.3333333333333333, 0.5833333333333334, 0.16666666666666666, 0.3333333333333333, 0.16666666666666666]",,,,,,,nunamh,001,fr,0,2022-05-17_10h36.21.712,Continuous,2022.1.1,36.284391215067195,
23,0,23,0,1,0,1,0,,,,,,,,1.2533681321326346,none,1782.0,-10.735266636975037,1.887725658800744e-05,0,51,['frequency'],0.011789133539423347,None,None,825.5080182000529,825.5080182000529,0.21326313354074955,1.4666312656733842,825.7295166000258,825.5080182000529,,,,,,,,,,,nunamh,001,fr,0,2022-05-17_10h36.21.712,Continuous,2022.1.1,36.284391215067195,
23,0,23,0,2,0,2,0,,,,,,,,2.8408643936826374,none,2520.0,-12.348660002848812,2.0427117679831133e-05,0,52,['frequency'],0.011536233592778444,None,None,826.9952662999276,826.9952662999276,0.21419803355820477,3.055062427240842,827.2156716000754,826.9952662999276,,,,,,,,,,,nunamh,001,fr,0,2022-05-17_10h36.21.712,Continuous,2022.1.1,36.284391215067195,
23,0,23,0,3,0,3,0,,,,,,,,1.3391525512235603,none,5040.0,-13.968938114404956,3.029066305309571e-05,0,53,['frequency'],0.01195573341101408,None,None,830.0618919001427,830.0618919001427,0.21478613349609077,1.553938684719651,830.2790298000909,830.0618919001427,,,,,,,,,,,nunamh,001,fr,0,2022-05-17_10h36.21.712,Continuous,2022.1.1,36.284391215067195,
23,0,23,0,4,0,4,0,,,,,,,,1.434452242879207,none,2245.0,-2.7954674304747247,5.81610866568847e-05,0,54,['frequency'],0.011673933360725641,None,['space'],831.6297570001334,831.6297570001334,0.21704003354534507,1.651492276424552,831.8529936999548,831.6297570001334,[-1.2181150000542402],,,,,,,,,,nunamh,001,fr,0,2022-05-17_10h36.21.712,Continuous,2022.1.1,36.284391215067195,
