tTrials.thisRepN,tTrials.thisTrialN,tTrials.thisN,tTrials.thisIndex,blocks.thisRepN,blocks.thisTrialN,blocks.thisN,blocks.thisIndex,trials.thisRepN,trials.thisTrialN,trials.thisN,trials.thisIndex,tStart_text.started,tStart_text.stopped,Prediction,practice_Frequency,practice_Level,practice_Psychopy_Level,practice_isCatchTrial,Practice_trial_detection,practice_Cue_Delays,practice_Cue_Frequencies,practice_Interval,practice_Cue_Intensities,tCue_visual_cue.started,tCue_visual_cue.stopped,tProbe_visual_cue.started,tProbe_visual_cue.stopped,tFeedback.keys,tFeedback.corr,tFeedback.rt,tFeedback.started,tFeedback.stopped,tToo_late.keys,tToo_late.corr,tToo_early.keys,tToo_early.corr,tToo_late.rt,more_instructions.started,more_instructions.stopped,readyy.keys,readyy.rt,readyy.started,readyy.stopped,txt_rhythm.started,txt_rhythm.stopped,sound_1.started,sound_1.stopped,sound_2.started,sound_2.stopped,sound_3.started,sound_3.stopped,sound_4.started,sound_4.stopped,cross.started,cross.stopped,sound_5.started,sound_5.stopped,circle.started,circle.stopped,rhythm_ready.keys,rhythm_ready.rt,rhythm_ready.started,rhythm_ready.stopped,rhytm_ready_txt.started,rhytm_ready_txt.stopped,txt_freq.started,txt_freq.stopped,sound_6.started,sound_6.stopped,sound_7.started,sound_7.stopped,sound_8.started,sound_8.stopped,sound_9.started,sound_9.stopped,cross_2.started,cross_2.stopped,sound_10.started,sound_10.stopped,circle_2.started,circle_2.stopped,freq_ready.keys,freq_ready.rt,freq_ready.started,freq_ready.stopped,freq_ready_txt.started,freq_ready_txt.stopped,txt_freq_2.started,txt_freq_2.stopped,sound_11.started,sound_11.stopped,sound_12.started,sound_12.stopped,sound_13.started,sound_13.stopped,sound_14.started,sound_14.stopped,cross_3.started,cross_3.stopped,sound_15.started,sound_15.stopped,circle_3.started,circle_3.stopped,freq_ready_2.keys,freq_ready_2.rt,freq_ready_2.started,freq_ready_2.stopped,freq_ready_txt_2.started,freq_ready_txt_2.stopped,txt_freq_3.started,txt_freq_3.stopped,sound_16.started,sound_16.stopped,sound_17.started,sound_17.stopped,sound_18.started,sound_18.stopped,sound_19.started,sound_19.stopped,cross_4.started,cross_4.stopped,sound_20.started,sound_20.stopped,circle_4.started,circle_4.stopped,freq_ready_txt_3.started,freq_ready_txt_3.stopped,tStart_text_2.started,tStart_text_2.stopped,this_trial_is.started,this_trial_is.stopped,Frequency,Level,Psychopy_Level,Real trial detection,Cue Delays,Cue Frequencies,Interval,Cue Intensities,Catch trial,cue_visual_cue.started,cue_visual_cue.stopped,probe_visual_cue.started,probe_visual_cue.stopped,feedback.keys,feedback.corr,feedback.rt,feedback.started,feedback.stopped,answer_too_late.keys,answer_too_late.corr,answer_too_early.keys,answer_too_early.corr,answer_too_early.rt,Catch trial answer,Audiogram_time,Audiogram_both,Audiogram_none,Audiogram_frequency,participant,session,Language (english or french),Skip training? (1 for yes),Resume previous experiment,date,expName,psychopyVersion,frameRate,
0,0,0,0,,,,,,,,,13.97389259999909,None,both,1000,30,0.0013930605843148849,False,1,"[0.6664396226209417, 0.6664396226209417, 0.6664396226209417, 0.6664396226209417]","[198.42513149602496, 297.3017787506803, 445.4493590701697, 667.4199270850172]",Perfect_5th,"[30, 30, 30, 30]",57.16199100000085,60.098784000001615,60.098784000001615,61.30317630000354,['space'],1,[1.0478255999914836],60.098784000001615,61.967828299995745,None,1,None,1,,,,,,,,,,,,,,,,,,,,,,,,,,,,,,,,,,,,,,,,,,,,,,,,,,,,,,,,,,,,,,,,,,,,,,,,,,,,,,,,,,,,,,,,,,,,,,,,,,,,,,,,,,,,,,,,,,,,,,,,,,,,quicsb,001,fr,0,0,2022-07-21_15h22.52.247,Cluster,2022.1.1,None,
1,0,1,0,,,,,,,,,,,none,2500,30,0.002716251657462167,False,1,"[0.4034347751252336, 0.4552421990067448, 0.5428548545851813, 0.6675316658487198]","[147.25798690858852, 1284.9680945493367, 4345.660081064968, 292.4795131126644]",None,"[30, 30, 30, 30]",65.85929579999356,68.2065614000021,68.2065614000021,69.42121649999171,None,0,,68.2065614000021,70.09572430000117,['space'],0,None,1,[0.0018233000009786338],,,,,,,,,,,,,,,,,,,,,,,,,,,,,,,,,,,,,,,,,,,,,,,,,,,,,,,,,,,,,,,,,,,,,,,,,,,,,,,,,,,,,,,,,,,,,,,,,,,,,,,,,,,,,,,,,,,,,,,,,,,quicsb,001,fr,0,0,2022-07-21_15h22.52.247,Cluster,2022.1.1,None,
2,0,2,0,,,,,,,,,,,both,6000,30,0.003664122665694519,True,0,"[0.4549792241658797, 0.4549792241658797, 0.4549792241658797, 0.4549792241658797]","[1190.5507889761495, 1783.8106725040816, 2672.696154421018, 4004.5195625101032]",Perfect_5th,"[30, 30, 30, 30]",78.53902749999543,80.84148479999567,80.84148479999567,82.04767129999527,None,1,,80.84148479999567,82.51642529999663,None,1,None,1,,,,,,,,,,,,,,,,,,,,,,,,,,,,,,,,,,,,,,,,,,,,,,,,,,,,,,,,,,,,,,,,,,,,,,,,,,,,,,,,,,,,,,,,,,,,,,,,,,,,,,,,,,,,,,,,,,,,,,,,,,,,quicsb,001,fr,0,0,2022-07-21_15h22.52.247,Cluster,2022.1.1,None,
3,0,3,0,,,,,,,,,,,time,440,30,0.0023562289915021436,False,1,"[0.6020189695942214, 0.6020189695942214, 0.6020189695942214, 0.6020189695942214]","[7496.308214904978, 456.45532540708933, 4522.328397591564, 341.28105529952404]",None,"[30, 30, 30, 30]",85.74535179999657,88.49622109999473,88.49622109999473,89.73125519999303,['space'],1,[1.1221122999995714],88.49622109999473,90.31991739998921,None,1,None,1,,,,,,,,,,,,,,,,,,,,,,,,,,,,,,,,,,,,,,,,,,,,,,,,,,,,,,,,,,,,,,,,,,,,,,,,,,,,,,,,,,,,,,,,,,,,,,,,,,,,,,,,,,,,,,,,,,,,,,,,,,,,quicsb,001,fr,0,0,2022-07-21_15h22.52.247,Cluster,2022.1.1,None,
4,0,4,0,,,,,,,,,,,both,250,30,0.005296268625886445,True,1,"[0.7021570580750193, 0.7021570580750193, 0.7021570580750193, 0.7021570580750193]","[157.49013123685913, 176.77669529663686, 198.42513149602493, 222.72467953508482]",Tone,"[30, 30, 30, 30]",93.01943479999318,96.06762159999926,96.06762159999926,97.27327920000243,None,1,,96.06762159999926,97.990452500002,None,1,None,1,,,,,,,,,,,,,,,,,,,,,,,,,,,,,,,,,,,,,,,,,,,,,,,,,,,,,,,,,,,,,,,,,,,,,,,,,,,,,,,,,,,,,,,,,,,,,,,,,,,,,,,,,,,,,,,,,,,,,,,,,,,,quicsb,001,fr,0,0,2022-07-21_15h22.52.247,Cluster,2022.1.1,None,
,,,,,,,,,,,,,,,,,,,,,,,,,,,,,,,,,,,,,,101.31120479998935,None,space,54.162144300004,101.31120479998935,None,,,,,,,,,,,,,,,,,,,,,,,,,,,,,,,,,,,,,,,,,,,,,,,,,,,,,,,,,,,,,,,,,,,,,,,,,,,,,,,,,,,,,,,,,,,,,,,,,,,,,,,,,,,,,,,,,,,,,quicsb,001,fr,0,0,2022-07-21_15h22.52.247,Cluster,2022.1.1,None,
,,,,,,,,,,,,,,,,,,,,,,,,,,,,,,,,,,,,,,,,,,,,155.54693979999865,156.55560149998928,157.00348948999454,157.21797929999593,157.5242212899975,157.7491796999966,158.01785118999396,None,158.5168716900007,None,156.9164907999948,158.73844429999008,159.0306340899915,None,158.73844429999008,159.56938570000057,space,1.8257726000010734,159.72036099999968,None,,,,,,,,,,,,,,,,,,,,,,,,,,,,,,,,,,,,,,,,,,,,,,,,,,,,,,,,,,,,,,,,,,,,,,,,,,,,,,,,,,,,,,,,,,,,,,,,,quicsb,001,fr,0,0,2022-07-21_15h22.52.247,Cluster,2022.1.1,None,
,,,,,,,,,,,,,,,,,,,,,,,,,,,,,,,,,,,,,,,,,,,,,,,,,,,,,,,,,,,,,,,,159.72036099999968,None,161.61254210000334,162.63565799999924,163.06917508999322,None,163.37814758999593,None,164.06930928999645,None,164.46952598999633,None,162.98091980000027,164.77618059999077,165.07641798999248,None,164.77618059999077,165.59208599998965,space,2.963334700005362,165.77434150000045,None,,,,,,,,,,,,,,,,,,,,,,,,,,,,,,,,,,,,,,,,,,,,,,,,,,,,,,,,,,,,,,,,,,,,,,,,,,,quicsb,001,fr,0,0,2022-07-21_15h22.52.247,Cluster,2022.1.1,None,
,,,,,,,,,,,,,,,,,,,,,,,,,,,,,,,,,,,,,,,,,,,,,,,,,,,,,,,,,,,,,,,,,,,,,,,,,,,,,,,,,,,,,,165.77434150000045,None,168.7886479000008,169.81140540000342,170.25331138999172,None,170.74268678999942,None,171.26263148998987,None,171.74544938999315,None,170.13601170000038,171.940042599992,172.23469828999805,172.45696029999817,171.940042599992,172.744941500001,space,3.0535111999924993,172.94796189999033,None,,,,,,,,,,,,,,,,,,,,,,,,,,,,,,,,,,,,,,,,,,,,,,,,,,,,,quicsb,001,fr,0,0,2022-07-21_15h22.52.247,Cluster,2022.1.1,None,
,,,,0,0,0,0,0,0,0,0,,,time,,,,,,,,,,,,,,,,,,,,,,,,,,,,,,,,,,,,,,,,,,,,,,,,,,,,,,,,,,,,,,,,,,,,,,,,,,,,,,,,,,,,,,,,,,,,,,172.94796189999033,None,176.06093249999685,177.0743536999944,177.5033815900024,None,177.81132998999237,None,178.51582598999812,None,178.91856369000016,None,177.41562839999096,179.206059499993,179.50594958999864,None,179.206059499993,180.020631899999,180.22576439999102,None,181.2613898999989,None,203.55351040000096,None,7369.334646963221,-4.110633339793331,0.00010118434925443618,1,"[0.5566099567097111, 0.5566099567097111, 0.5566099567097111, 0.5566099567097111]","[193.276368614186, 2110.850133250267, 2462.844419182246, 2503.3112423789253]",None,"[8.322220697402269, 10.268044040814377, 11.272511997982248, 11.272511997982248]",False,204.52374520000012,207.20761869999114,207.20761869999114,208.4189733999956,['space'],1,[0.2731525999988662],3.249668220014428,4.282378720017732,None,1,None,1,,,,,,,quicsb,001,fr,0,0,2022-07-21_15h22.52.247,Cluster,2022.1.1,None,
,,,,0,0,0,0,1,0,1,0,,,both,,,,,,,,,,,,,,,,,,,,,,,,,,,,,,,,,,,,,,,,,,,,,,,,,,,,,,,,,,,,,,,,,,,,,,,,,,,,,,,,,,,,,,,,,,,,,,,,,,,,,,,,,,,,,,,,,,,,208.86396269999386,None,184.81744160676337,2.32222069740227,0.00041904413986325605,1,"[0.6163754189733184, 0.6163754189733184, 0.6163754189733184, 0.6163754189733184]","[931.421540272311, 621.6492964939602, 414.9011281384511, 276.9132806896564]",Perfect_5th,"[14.973304175529991, 13.0, 6.505598694224707, 7.0]",False,209.86552369999117,212.7557291999983,212.7557291999983,213.95966199999384,['space'],1,[0.17127790000813548],3.481025020009838,4.511474920014734,None,1,None,1,,,,,,,quicsb,001,fr,0,0,2022-07-21_15h22.52.247,Cluster,2022.1.1,None,
,,,,0,0,0,0,2,0,2,0,,,frequency,,,,,,,,,,,,,,,,,,,,,,,,,,,,,,,,,,,,,,,,,,,,,,,,,,,,,,,,,,,,,,,,,,,,,,,,,,,,,,,,,,,,,,,,,,,,,,,,,,,,,,,,,,,,,,,,,,,,214.4211643000017,None,1531.5493327683196,3.98733479588627,8.06608674597298e-05,0,"[0.5073107599423236, 0.473795678711197, 0.43355556747552365, 0.7078720740525459]","[7718.524973229014, 5151.497374836393, 3438.2120022919626, 2294.7312038725327]",Perfect_5th,"[2.0, 2.0, 9.346823562676974, 10.792271583857126]",False,215.44398830000137,217.89703989999543,217.89703989999543,219.13139159999264,None,0,,3.1399024200218264,4.168486620023032,None,1,['space'],0,[0.4397712999925716],,,,,,quicsb,001,fr,0,0,2022-07-21_15h22.52.247,Cluster,2022.1.1,None,
,,,,0,0,0,0,3,0,3,0,,,both,,,,,,,,,,,,,,,,,,,,,,,,,,,,,,,,,,,,,,,,,,,,,,,,,,,,,,,,,,,,,,,,,,,,,,,,,,,,,,,,,,,,,,,,,,,,,,,,,,,,,,,,,,,,,,,,,,,,219.6571372000035,None,,,,,"[0.6104887275621881, 0.6104887275621881, 0.6104887275621881, 0.6104887275621881]","[282.306942420146, 355.68445928660185, 448.13433737566567, 564.6138848402919]",Major_3rd,"[7.0, 6.356615356648497, 7.0, 11.0]",True,220.65050360000168,223.50192830000015,223.50192830000015,224.70425929999328,None,1,,3.477712520005298,4.507462820009096,None,1,None,1,,0,,,,,quicsb,001,fr,0,0,2022-07-21_15h22.52.247,Cluster,2022.1.1,None,
,,,,0,0,0,0,4,0,4,0,,,both,,,,,,,,,,,,,,,,,,,,,,,,,,,,,,,,,,,,,,,,,,,,,,,,,,,,,,,,,,,,,,,,,,,,,,,,,,,,,,,,,,,,,,,,,,,,,,,,,,,,,,,,,,,,,,,,,,,,225.19904289999977,None,353.5533905932738,0.0,8.861233020703779e-05,1,"[0.4328342958662635, 0.4328342958662635, 0.4328342958662635, 0.4328342958662635]","[561.2310241546867, 500.0000000000001, 445.44935907016975, 396.8502629920499]",Tone,"[11.0, 8.651526734635146, 7.0, 6.505598694224707]",False,226.20651469999575,228.51923819999502,228.51923819999502,229.73959679999098,['space'],1,[0.2377738000068348],2.7649142100126483,3.774719910012209,None,1,None,1,,,,,,,quicsb,001,fr,0,0,2022-07-21_15h22.52.247,Cluster,2022.1.1,None,
,,,,0,0,0,0,5,0,5,0,,,none,,,,,,,,,,,,,,,,,,,,,,,,,,,,,,,,,,,,,,,,,,,,,,,,,,,,,,,,,,,,,,,,,,,,,,,,,,,,,,,,,,,,,,,,,,,,,,,,,,,,,,,,,,,,,,,,,,,,230.01891060000344,None,175.68622788949915,2.4526169418701524,0.00046948835849225146,1,"[0.4796460293039229, 0.6301299487787368, 0.510411496569142, 0.6750562891879213]","[317.255131491015, 407.87769642412894, 3826.064348709786, 1181.727041914212]",None,"[6.6749930698778375, 6.505598694224707, 7.0, 12.74458271775576]",False,231.0258485999948,233.67974619999586,233.67974619999586,234.8866444000014,['space'],1,[0.30229890000191517],3.318238720006775,4.3509058200143045,None,1,None,1,,,,,,,quicsb,001,fr,0,0,2022-07-21_15h22.52.247,Cluster,2022.1.1,None,
,,,,0,0,0,0,6,0,6,0,,,none,,,,,,,,,,,,,,,,,,,,,,,,,,,,,,,,,,,,,,,,,,,,,,,,,,,,,,,,,,,,,,,,,,,,,,,,,,,,,,,,,,,,,,,,,,,,,,,,,,,,,,,,,,,,,,,,,,,,235.42996919999132,None,329.87697769322364,0.0,9.475893972752513e-05,1,"[0.5280831428434954, 0.41878962422031596, 0.5279086668408352, 0.7176293552438489]","[4785.732476170035, 682.5750011590446, 1053.792553318026, 1714.7674353905747]",None,"[3.0, 14.0, 13.552618345959704, 9.44561707139802]",False,236.83536650000315,239.32605579998926,239.32605579998926,240.54076899999927,['space'],1,[0.22055289999116212],3.22617258001992,4.256149580018246,None,1,None,1,,,,,,,quicsb,001,fr,0,0,2022-07-21_15h22.52.247,Cluster,2022.1.1,None,
,,,,0,0,0,0,7,0,7,0,,,frequency,,,,,,,,,,,,,,,,,,,,,,,,,,,,,,,,,,,,,,,,,,,,,,,,,,,,,,,,,,,,,,,,,,,,,,,,,,,,,,,,,,,,,,,,,,,,,,,,,,,,,,,,,,,,,,,,,,,,241.13593659999606,None,329.87697769322364,0.0,9.475893972752513e-05,1,"[0.6787317693431656, 0.6156786445427078, 0.6253758852280135, 0.5329090179471323]","[523.6470614103135, 466.51649576840384, 415.618948071394, 370.27438807164117]",Tone,"[9.90502565043273, 7.639612854523006, 6.505598694224707, 6.3401916021253175]",False,242.15562629999476,245.10659519999172,245.10659519999172,246.31827879999764,['space'],1,[0.18704210000578314],3.4947277100000065,4.519157310001901,None,1,None,1,,,,,,,quicsb,001,fr,0,0,2022-07-21_15h22.52.247,Cluster,2022.1.1,None,
,,,,0,0,0,0,8,0,8,0,,,both,,,,,,,,,,,,,,,,,,,,,,,,,,,,,,,,,,,,,,,,,,,,,,,,,,,,,,,,,,,,,,,,,,,,,,,,,,,,,,,,,,,,,,,,,,,,,,,,,,,,,,,,,,,,,,,,,,,,246.72729539999273,None,384.19835326045273,0.34019160212531785,8.38782985542702e-05,1,"[0.6761808872257058, 0.6761808872257058, 0.6761808872257058, 0.6761808872257058]","[968.119185215582, 768.3967065209055, 609.8768701300926, 484.059592607791]",Major_3rd,"[14.321076609125381, 15.424494065508316, 12.677992580316015, 8.0]",False,247.72451410000212,250.80907309999748,250.80907309999748,252.02607539999008,['space'],1,[0.15760130000126082],3.736858720003511,4.76681672000268,None,1,None,1,,,,,,,quicsb,001,fr,0,0,2022-07-21_15h22.52.247,Cluster,2022.1.1,None,
,,,,0,0,0,0,9,0,9,0,,,both,,,,,,,,,,,,,,,,,,,,,,,,,,,,,,,,,,,,,,,,,,,,,,,,,,,,,,,,,,,,,,,,,,,,,,,,,,,,,,,,,,,,,,,,,,,,,,,,,,,,,,,,,,,,,,,,,,,,252.55255359999137,None,125.0,-1.0,0.000644124775846567,0,"[0.46796480041212424, 0.46796480041212424, 0.46796480041212424, 0.46796480041212424]","[629.9605249474366, 420.4482076268573, 280.6155120773433, 187.2883846095852]",Perfect_5th,"[13.0, 6.505598694224707, 7.0, 8.322220697402269]",False,254.06345889999648,256.5037580999924,256.5037580999924,257.71774389999337,None,0,,2.899429430020973,3.93460913002491,None,1,['space'],0,[0.3708939000061946],,,,,,quicsb,001,fr,0,0,2022-07-21_15h22.52.247,Cluster,2022.1.1,None,
,,,,0,0,0,0,10,0,10,0,,,both,,,,,,,,,,,,,,,,,,,,,,,,,,,,,,,,,,,,,,,,,,,,,,,,,,,,,,,,,,,,,,,,,,,,,,,,,,,,,,,,,,,,,,,,,,,,,,,,,,,,,,,,,,,,,,,,,,,,258.0319299999974,None,2424.8202785043873,5.272511997982248,0.00015455628740734318,1,"[0.714463531837866, 0.714463531837866, 0.714463531837866, 0.714463531837866]","[962.290565232922, 1212.4101392521939, 1527.5410555498133, 1924.5811304658434]",Major_3rd,"[14.973304175529991, 12.0, 9.98733479588627, 9.512979454926166]",False,259.032567000002,262.21062489999167,262.21062489999167,263.4184508000035,['space'],1,[0.1840482000116026],3.890141220021178,4.924090320026153,None,1,None,1,,,,,,,quicsb,001,fr,0,0,2022-07-21_15h22.52.247,Cluster,2022.1.1,None,
,,,,0,0,0,0,11,0,11,0,,,time,,,,,,,,,,,,,,,,,,,,,,,,,,,,,,,,,,,,,,,,,,,,,,,,,,,,,,,,,,,,,,,,,,,,,,,,,,,,,,,,,,,,,,,,,,,,,,,,,,,,,,,,,,,,,,,,,,,,264.0210175999964,None,176.7766952966369,1.0,0.00039272999556449274,1,"[0.7237724772763905, 0.7237724772763905, 0.7237724772763905, 0.7237724772763905]","[1348.8423634669673, 568.092236416583, 201.47334309584934, 2242.3434352033814]",None,"[11.0, 11.0, 8.12511642922717, 10.792271583857126]",False,265.1126249999943,268.3147067999962,268.3147067999962,269.552861499993,['space'],1,[0.17803970001114067],3.9574011800141307,4.969519880018197,None,1,None,1,,,,,,,quicsb,001,fr,0,0,2022-07-21_15h22.52.247,Cluster,2022.1.1,None,
,,,,0,0,0,0,12,0,12,0,,,both,,,,,,,,,,,,,,,,,,,,,,,,,,,,,,,,,,,,,,,,,,,,,,,,,,,,,,,,,,,,,,,,,,,,,,,,,,,,,,,,,,,,,,,,,,,,,,,,,,,,,,,,,,,,,,,,,,,,270.12207569999737,None,1231.1444133449168,4.0,8.51413334521805e-05,1,"[0.7518785212307222, 0.7518785212307222, 0.7518785212307222, 0.7518785212307222]","[775.5723809168675, 870.5505632961243, 977.1599684342463, 1096.8249796946263]",Tone,"[15.424494065508316, 15.434644929157692, 14.321076609125381, 13.552618345959704]",False,271.13873559999047,274.4378050999949,274.4378050999949,275.6696590999927,['space'],1,[0.19751640000322368],4.041063610013225,5.080387010006234,None,1,None,1,,,,,,,quicsb,001,fr,0,0,2022-07-21_15h22.52.247,Cluster,2022.1.1,None,
,,,,0,0,0,0,13,0,13,0,,,frequency,,,,,,,,,,,,,,,,,,,,,,,,,,,,,,,,,,,,,,,,,,,,,,,,,,,,,,,,,,,,,,,,,,,,,,,,,,,,,,,,,,,,,,,,,,,,,,,,,,,,,,,,,,,,,,,,,,,,276.27123539999593,None,1775.4858632036862,3.4456170713980203,9.616397460241365e-05,1,"[0.722821982444528, 0.688697276408361, 0.48117797389906675, 0.4451411270597118]","[1118.4860064205466, 1255.4580937721773, 1409.204063502099, 1581.7780796044578]",Tone,"[13.0, 11.949863232820327, 10.533624096537752, 9.609120762538604]",False,277.27842000000237,280.2293764999922,280.2293764999922,281.4719504999957,['space'],1,[0.1874876000074437],3.362039520012331,4.400973320007324,None,1,None,1,,,,,,,quicsb,001,fr,0,0,2022-07-21_15h22.52.247,Cluster,2022.1.1,None,
,,,,0,0,0,0,14,0,14,0,,,both,,,,,,,,,,,,,,,,,,,,,,,,,,,,,,,,,,,,,,,,,,,,,,,,,,,,,,,,,,,,,,,,,,,,,,,,,,,,,,,,,,,,,,,,,,,,,,,,,,,,,,,,,,,,,,,,,,,,281.7599549000006,None,434.46589315380504,0.9239813671431916,8.31881824144222e-05,1,"[0.6669756925859037, 0.6669756925859037, 0.6669756925859037, 0.6669756925859037]","[172.4179039591634, 217.23294657690255, 273.69636212292795, 344.83580791832674]",Major_3rd,"[8.452616941870152, 7.880489113763942, 7.0, 6.356615356648497]",False,282.77145659999223,285.79680440000084,285.79680440000084,287.0343412999937,['space'],1,[0.2727166000113357],3.6864710200025,4.729494320010417,None,1,None,1,,,,,,,quicsb,001,fr,0,0,2022-07-21_15h22.52.247,Cluster,2022.1.1,None,
,,,,0,0,0,0,15,0,15,0,,,time,,,,,,,,,,,,,,,,,,,,,,,,,,,,,,,,,,,,,,,,,,,,,,,,,,,,,,,,,,,,,,,,,,,,,,,,,,,,,,,,,,,,,,,,,,,,,,,,,,,,,,,,,,,,,,,,,,,,287.5751057000016,None,2014.9414626522591,3.801872696302679,0.0001164078134151025,1,"[0.4384611294238477, 0.4384611294238477, 0.4384611294238477, 0.4384611294238477]","[1394.2568194132466, 368.22336197705323, 5463.556023243883, 5680.235572360631]",None,"[10.533624096537752, 6.3401916021253175, 1.7354919848833203, 1.1784144081800818]",False,288.5745614999905,290.9030469999998,290.9030469999998,292.1299083999911,['space'],1,[0.3242515000019921],2.768591420011944,3.797303820014349,None,1,None,1,,,,,,,quicsb,001,fr,0,0,2022-07-21_15h22.52.247,Cluster,2022.1.1,None,
,,,,0,0,0,0,16,0,16,0,,,frequency,,,,,,,,,,,,,,,,,,,,,,,,,,,,,,,,,,,,,,,,,,,,,,,,,,,,,,,,,,,,,,,,,,,,,,,,,,,,,,,,,,,,,,,,,,,,,,,,,,,,,,,,,,,,,,,,,,,,292.43437819999235,None,125.0,-1.0,0.000644124775846567,1,"[0.7811314687432225, 0.6467648983251348, 0.7422150518648059, 0.5428782949815847]","[629.9605249474366, 420.4482076268573, 280.6155120773433, 187.2883846095852]",Perfect_5th,"[13.0, 6.505598694224707, 7.0, 8.322220697402269]",False,293.4682757999981,296.66879539999354,296.66879539999354,297.8973857999954,['space'],1,[0.30438580000190996],3.7544280100119067,4.776864210012718,None,1,None,1,,,,,,,quicsb,001,fr,0,0,2022-07-21_15h22.52.247,Cluster,2022.1.1,None,
,,,,0,0,0,0,17,0,17,0,,,time,,,,,,,,,,,,,,,,,,,,,,,,,,,,,,,,,,,,,,,,,,,,,,,,,,,,,,,,,,,,,,,,,,,,,,,,,,,,,,,,,,,,,,,,,,,,,,,,,,,,,,,,,,,,,,,,,,,,298.2990776999941,None,353.5533905932738,0.0,8.861233020703779e-05,1,"[0.7667075272240955, 0.7667075272240955, 0.7667075272240955, 0.7667075272240955]","[190.54868683563274, 166.1338690983562, 837.1928053619267, 139.24274657482886]",None,"[8.322220697402269, 8.50402309052194, 15.606086819012052, 8.383502550706392]",False,299.32694569999876,302.675845699996,302.675845699996,303.89792679999664,['space'],1,[0.3194680000015069],4.087328809997416,5.117922510005883,None,1,None,1,,,,,,,quicsb,001,fr,0,0,2022-07-21_15h22.52.247,Cluster,2022.1.1,None,
,,,,0,0,0,0,18,0,18,0,,,both,,,,,,,,,,,,,,,,,,,,,,,,,,,,,,,,,,,,,,,,,,,,,,,,,,,,,,,,,,,,,,,,,,,,,,,,,,,,,,,,,,,,,,,,,,,,,,,,,,,,,,,,,,,,,,,,,,,,304.50807050000003,None,,,,,"[0.41954265184256373, 0.41954265184256373, 0.41954265184256373, 0.41954265184256373]","[6448.855657214686, 5118.460127126834, 4062.52449512921, 3224.427828607343]",Major_3rd,"[0.9976980242143076, 2.0, 6.0, 10.427097004279265]",True,305.50110169999243,307.78883920000226,307.78883920000226,309.0222974999924,None,1,,2.695708020022721,3.725335820025066,None,1,['space'],0,[0.3402113000047393],0,,,,,quicsb,001,fr,0,0,2022-07-21_15h22.52.247,Cluster,2022.1.1,None,
,,,,0,0,0,0,19,0,19,0,,,none,,,,,,,,,,,,,,,,,,,,,,,,,,,,,,,,,,,,,,,,,,,,,,,,,,,,,,,,,,,,,,,,,,,,,,,,,,,,,,,,,,,,,,,,,,,,,,,,,,,,,,,,,,,,,,,,,,,,309.28841439999815,None,7518.535003355411,-4.0,0.00010533496978237779,1,"[0.40730375224891535, 0.721261220615692, 0.5352353508518365, 0.6861310205075204]","[2595.5803172895608, 761.2221742303525, 287.98523619750915, 538.6700671672195]",None,"[11.557044354572005, 15.424494065508316, 6.893847117749152, 10.0]",False,310.2953225999954,313.01379749999614,313.01379749999614,314.23698180000065,['space'],1,[0.38000049999391194],3.367873420007527,4.381380920007359,None,1,None,1,,,,,,,quicsb,001,fr,0,0,2022-07-21_15h22.52.247,Cluster,2022.1.1,None,
,,,,1,0,1,0,0,0,0,0,,,time,,,,,,,,,,,,,,,,,,,,,,,,,,,,,,,,,,,,,,,,,,,,,,,,,,,,,,,,,,,,,,,,,,,,,,,,,,,,,,,,,,,,,,,,,,,,,,,,,,,,,,,,,,,,,,,,,,,,326.74207490000117,None,2896.6978582428674,5.547737168085696,0.00011599686995405978,1,"[0.626705950588713, 0.626705950588713, 0.626705950588713, 0.626705950588713]","[2333.2146777215903, 406.33057716298407, 927.6010553067119, 304.2072469298711]",None,"[11.0, 6.505598694224707, 15.0, 6.6749930698778375]",False,327.7075693999941,330.61710570000287,330.61710570000287,331.84159119999094,['space'],1,[0.2672577000048477],3.522273820010014,4.560883020007168,None,1,None,1,,,,,,,quicsb,001,fr,0,0,2022-07-21_15h22.52.247,Cluster,2022.1.1,None,
,,,,1,0,1,0,1,0,1,0,,,time,,,,,,,,,,,,,,,,,,,,,,,,,,,,,,,,,,,,,,,,,,,,,,,,,,,,,,,,,,,,,,,,,,,,,,,,,,,,,,,,,,,,,,,,,,,,,,,,,,,,,,,,,,,,,,,,,,,,332.33638079999946,None,1148.6983549970344,5.0,8.9397783717774e-05,1,"[0.4699431886844295, 0.4699431886844295, 0.4699431886844295, 0.4699431886844295]","[343.9559656201376, 345.0223942031397, 2284.442971881512, 6197.037988297411]",None,"[6.356615356648497, 6.356615356648497, 10.792271583857126, 0.9309278551451889]",False,333.81501609999395,336.25012309999147,336.25012309999147,337.4910242999904,['space'],1,[0.35288169998966623],2.912249940010952,3.9321937400090974,None,1,None,1,,,,,,,quicsb,001,fr,0,0,2022-07-21_15h22.52.247,Cluster,2022.1.1,None,
,,,,1,0,1,0,2,0,2,0,,,time,,,,,,,,,,,,,,,,,,,,,,,,,,,,,,,,,,,,,,,,,,,,,,,,,,,,,,,,,,,,,,,,,,,,,,,,,,,,,,,,,,,,,,,,,,,,,,,,,,,,,,,,,,,,,,,,,,,,337.7806303999969,None,,,,,"[0.663455152077369, 0.663455152077369, 0.663455152077369, 0.663455152077369]","[366.9019442899928, 1382.481673394513, 218.79248618837377, 132.3746872970688]",None,"[6.3401916021253175, 10.533624096537752, 7.880489113763942, 8.250125814639645]",True,338.7909912000032,341.82303069999034,341.82303069999034,343.0507779000036,None,1,,3.686703720013611,4.715502620019834,None,1,None,1,,0,,,,,quicsb,001,fr,0,0,2022-07-21_15h22.52.247,Cluster,2022.1.1,None,
,,,,1,0,1,0,3,0,3,0,,,time,,,,,,,,,,,,,,,,,,,,,,,,,,,,,,,,,,,,,,,,,,,,,,,,,,,,,,,,,,,,,,,,,,,,,,,,,,,,,,,,,,,,,,,,,,,,,,,,,,,,,,,,,,,,,,,,,,,,343.5611542999977,None,1843.9163432807777,3.5129794549261653,0.00010154271761600827,1,"[0.7573408965818211, 0.7573408965818211, 0.7573408965818211, 0.7573408965818211]","[5432.003369335818, 339.04576433823297, 6559.705717253669, 310.6404479761724]",None,"[1.7354919848833203, 6.486254574389276, 1.0, 6.6749930698778375]",False,344.5707806999999,347.86557699998957,347.86557699998957,349.0948025999969,['space'],1,[0.29740019999735523],4.06059332001314,5.092569520013058,None,1,None,1,,,,,,,quicsb,001,fr,0,0,2022-07-21_15h22.52.247,Cluster,2022.1.1,None,
,,,,1,0,1,0,4,0,4,0,,,none,,,,,,,,,,,,,,,,,,,,,,,,,,,,,,,,,,,,,,,,,,,,,,,,,,,,,,,,,,,,,,,,,,,,,,,,,,,,,,,,,,,,,,,,,,,,,,,,,,,,,,,,,,,,,,,,,,,,349.7224533999979,None,125.0,-1.0,0.000644124775846567,1,"[0.6499748966166874, 0.589197920200413, 0.6273692438558658, 0.5610154183493589]","[4636.229579980635, 241.6457554577212, 161.18683763343037, 7892.0604266173605]",None,"[3.7547322211489256, 7.37405094293265, 8.50402309052194, 2.6058941440388805]",False,350.75629130000016,353.6668503999972,353.6668503999972,354.8989220999938,['space'],1,[0.30365940000046976],3.443820210013655,4.472181310018641,None,1,None,1,,,,,,,quicsb,001,fr,0,0,2022-07-21_15h22.52.247,Cluster,2022.1.1,None,
,,,,1,0,1,0,5,0,5,0,,,time,,,,,,,,,,,,,,,,,,,,,,,,,,,,,,,,,,,,,,,,,,,,,,,,,,,,,,,,,,,,,,,,,,,,,,,,,,,,,,,,,,,,,,,,,,,,,,,,,,,,,,,,,,,,,,,,,,,,355.2878442999936,None,659.7539553864473,8.0,0.00012196576341781687,1,"[0.6767657388028947, 0.6767657388028947, 0.6767657388028947, 0.6767657388028947]","[232.57860142846386, 356.80429315375454, 132.67622463607822, 650.3960676927065]",None,"[7.624387218337975, 6.356615356648497, 8.250125814639645, 13.903905323176307]",False,356.32009149999067,359.36866569999256,359.36866569999256,360.5954490000004,['space'],1,[0.29330140000092797],3.7467257100215647,4.775343810018967,None,1,None,1,,,,,,,quicsb,001,fr,0,0,2022-07-21_15h22.52.247,Cluster,2022.1.1,None,
,,,,1,0,1,0,6,0,6,0,,,none,,,,,,,,,,,,,,,,,,,,,,,,,,,,,,,,,,,,,,,,,,,,,,,,,,,,,,,,,,,,,,,,,,,,,,,,,,,,,,,,,,,,,,,,,,,,,,,,,,,,,,,,,,,,,,,,,,,,361.14342880000186,None,,,,,"[0.6195487142439162, 0.4368668553526134, 0.7600542338791698, 0.40264768947222807]","[2834.4739473657296, 7444.052888408339, 659.2783353152367, 631.6083595177635]",None,"[11.547737168085696, 1.8893666602066688, 13.903905323176307, 13.0]",True,362.1554289999913,365.00760250000167,365.00760250000167,366.2123086999927,None,1,,3.251832520007156,4.280526520014973,None,1,None,1,,0,,,,,quicsb,001,fr,0,0,2022-07-21_15h22.52.247,Cluster,2022.1.1,None,
,,,,1,0,1,0,7,0,7,0,,,both,,,,,,,,,,,,,,,,,,,,,,,,,,,,,,,,,,,,,,,,,,,,,,,,,,,,,,,,,,,,,,,,,,,,,,,,,,,,,,,,,,,,,,,,,,,,,,,,,,,,,,,,,,,,,,,,,,,,366.4921101999935,None,707.1067811865476,9.0,0.00012514451048241843,1,"[0.6276678125965678, 0.6276678125965678, 0.6276678125965678, 0.6276678125965678]","[1122.4620483093734, 1000.0000000000002, 890.8987181403395, 793.7005259840998]",Tone,"[13.0, 14.321076609125381, 15.434644929157692, 15.606086819012052]",False,367.52110959999845,370.45063279999886,370.45063279999886,371.6853507999913,['space'],1,[0.3068776000000071],3.5275730100256624,4.536354510026285,None,1,None,1,,,,,,,quicsb,001,fr,0,0,2022-07-21_15h22.52.247,Cluster,2022.1.1,None,
,,,,1,0,1,0,8,0,8,0,,,time,,,,,,,,,,,,,,,,,,,,,,,,,,,,,,,,,,,,,,,,,,,,,,,,,,,,,,,,,,,,,,,,,,,,,,,,,,,,,,,,,,,,,,,,,,,,,,,,,,,,,,,,,,,,,,,,,,,,372.09611739999673,None,864.0687749774808,9.434644929157692,0.00011908025108224776,1,"[0.665879395492795, 0.665879395492795, 0.665879395492795, 0.665879395492795]","[261.5973900797819, 212.6832421547378, 825.103252392858, 128.40024545222983]",None,"[7.131455333704845, 8.0, 15.606086819012052, 8.104446192087604]",False,373.1054041000025,376.1195985999948,376.1195985999948,377.35779389999516,['space'],1,[0.260235299996566],3.6765172200102825,4.708712420004304,None,1,None,1,,,,,,,quicsb,001,fr,0,0,2022-07-21_15h22.52.247,Cluster,2022.1.1,None,
,,,,1,0,1,0,9,0,9,0,,,none,,,,,,,,,,,,,,,,,,,,,,,,,,,,,,,,,,,,,,,,,,,,,,,,,,,,,,,,,,,,,,,,,,,,,,,,,,,,,,,,,,,,,,,,,,,,,,,,,,,,,,,,,,,,,,,,,,,,377.8721890000015,None,5596.956314883806,-4.821585591819918,7.504198134528283e-05,1,"[0.4663776481824957, 0.599929185983266, 0.5792305642083769, 0.5761856696554666]","[483.6043659713156, 5111.2309361456855, 2975.8126187589382, 1870.9633782446901]",None,"[8.0, 2.0, 11.17628837553826, 9.512979454926166]",False,378.88117949999287,381.5629861999914,381.5629861999914,382.77369539999927,['space'],1,[0.21434989999397658],3.23326362001535,4.241435420015478,None,1,None,1,,,,,,,quicsb,001,fr,0,0,2022-07-21_15h22.52.247,Cluster,2022.1.1,None,
,,,,1,0,1,0,10,0,10,0,,,both,,,,,,,,,,,,,,,,,,,,,,,,,,,,,,,,,,,,,,,,,,,,,,,,,,,,,,,,,,,,,,,,,,,,,,,,,,,,,,,,,,,,,,,,,,,,,,,,,,,,,,,,,,,,,,,,,,,,383.1840271999972,None,,,,,"[0.6814548011450018, 0.6814548011450018, 0.6814548011450018, 0.6814548011450018]","[7913.962947928127, 7050.539445719309, 6281.31655438923, 5596.016866539057]",Tone,"[2.6058941440388805, 1.3362064578969797, 0.9976980242143076, 1.1784144081800818]",True,384.19162319999305,387.2821399999957,387.2821399999957,388.4906154999917,None,1,,3.755290219996823,4.765463219999219,None,1,None,1,,0,,,,,quicsb,001,fr,0,0,2022-07-21_15h22.52.247,Cluster,2022.1.1,None,
,,,,1,0,1,0,11,0,11,0,,,none,,,,,,,,,,,,,,,,,,,,,,,,,,,,,,,,,,,,,,,,,,,,,,,,,,,,,,,,,,,,,,,,,,,,,,,,,,,,,,,,,,,,,,,,,,,,,,,,,,,,,,,,,,,,,,,,,,,,389.0141794999945,None,2828.42712474619,0.0,6.548596627134577e-05,1,"[0.5897235564113272, 0.417620119498126, 0.49386591625528053, 0.7086516913291052]","[133.9959551803231, 1854.8546265316359, 1990.4312964573173, 5089.903645228657]",None,"[8.250125814639645, 9.512979454926166, 9.801872696302679, 2.0]",False,390.10072269999364,392.63567579998926,392.63567579998926,393.8398068999959,['space'],1,[0.3154184000013629],3.2293679900176357,4.264688290015329,None,1,None,1,,,,,,,quicsb,001,fr,0,0,2022-07-21_15h22.52.247,Cluster,2022.1.1,None,
,,,,1,0,1,0,12,0,12,0,,,time,,,,,,,,,,,,,,,,,,,,,,,,,,,,,,,,,,,,,,,,,,,,,,,,,,,,,,,,,,,,,,,,,,,,,,,,,,,,,,,,,,,,,,,,,,,,,,,,,,,,,,,,,,,,,,,,,,,,394.4191865999892,None,125.0,-2.0,0.0005740768107484417,1,"[0.5430320069161527, 0.5430320069161527, 0.5430320069161527, 0.5430320069161527]","[5276.477773360711, 271.30966973757654, 3883.6236020376446, 471.4619414305033]",None,"[1.7354919848833203, 7.131455333704845, 7.0, 7.639612854523006]",False,395.43876759998966,398.1104207000026,398.1104207000026,399.3474425000022,['space'],1,[0.39420519999112],3.2062595099996543,4.2126035100081936,None,1,None,1,,,,,,,quicsb,001,fr,0,0,2022-07-21_15h22.52.247,Cluster,2022.1.1,None,
,,,,1,0,1,0,13,0,13,0,,,time,,,,,,,,,,,,,,,,,,,,,,,,,,,,,,,,,,,,,,,,,,,,,,,,,,,,,,,,,,,,,,,,,,,,,,,,,,,,,,,,,,,,,,,,,,,,,,,,,,,,,,,,,,,,,,,,,,,,399.6889804999955,None,464.63180475423195,1.6396128545230055,8.847071224109009e-05,1,"[0.7307132611681646, 0.7307132611681646, 0.7307132611681646, 0.7307132611681646]","[1447.3379597661203, 6006.678447180276, 1487.7586338033764, 1970.9345532720574]",None,"[10.533624096537752, 0.9309278551451889, 10.0, 9.801872696302679]",False,400.69861839999794,403.91465579999203,403.91465579999203,405.12330929999007,['space'],1,[0.3328512000007322],3.944423620007001,4.958775020000758,None,1,None,1,,,,,,,quicsb,001,fr,0,0,2022-07-21_15h22.52.247,Cluster,2022.1.1,None,
,,,,1,0,1,0,14,0,14,0,,,both,,,,,,,,,,,,,,,,,,,,,,,,,,,,,,,,,,,,,,,,,,,,,,,,,,,,,,,,,,,,,,,,,,,,,,,,,,,,,,,,,,,,,,,,,,,,,,,,,,,,,,,,,,,,,,,,,,,,405.71613739999884,None,,,,,"[0.7755073493978997, 0.7755073493978997, 0.7755073493978997, 0.7755073493978997]","[5614.766642657102, 5002.188404600349, 4456.4432375549195, 3970.2395678028615]",Tone,"[1.1784144081800818, 2.610680730654525, 4.0, 6.5650310828955565]",True,406.71103929998935,410.05837579999934,410.05837579999934,411.2903724999924,None,1,,4.106115219998173,5.108353319999878,None,1,None,1,,0,,,,,quicsb,001,fr,0,0,2022-07-21_15h22.52.247,Cluster,2022.1.1,None,
,,,,1,0,1,0,15,0,15,0,,,time,,,,,,,,,,,,,,,,,,,,,,,,,,,,,,,,,,,,,,,,,,,,,,,,,,,,,,,,,,,,,,,,,,,,,,,,,,,,,,,,,,,,,,,,,,,,,,,,,,,,,,,,,,,,,,,,,,,,411.8708830999967,None,4287.0938501451765,-3.0,7.340968674065446e-05,1,"[0.49550435748930155, 0.49550435748930155, 0.49550435748930155, 0.49550435748930155]","[4916.804854565366, 328.40885621543106, 191.90754748828894, 296.31361906636124]",None,"[2.610680730654525, 6.486254574389276, 8.322220697402269, 6.893847117749152]",False,412.89606630000344,415.42657480000344,415.42657480000344,416.6629242999916,['space'],1,[0.32104229999822564],3.002677410026081,4.035008210019441,None,1,None,1,,,,,,,quicsb,001,fr,0,0,2022-07-21_15h22.52.247,Cluster,2022.1.1,None,
,,,,1,0,1,0,16,0,16,0,,,time,,,,,,,,,,,,,,,,,,,,,,,,,,,,,,,,,,,,,,,,,,,,,,,,,,,,,,,,,,,,,,,,,,,,,,,,,,,,,,,,,,,,,,,,,,,,,,,,,,,,,,,,,,,,,,,,,,,,416.9767237999913,None,333.98197441258156,0.48625457438927666,9.908798858655156e-05,1,"[0.5390545856486584, 0.5390545856486584, 0.5390545856486584, 0.5390545856486584]","[137.33857465297802, 386.39612290223346, 448.47323181168014, 1963.417673580427]",None,"[8.250125814639645, 6.3401916021253175, 7.0, 9.801872696302679]",False,417.98812069999985,420.631212399996,420.631212399996,421.8325987999997,['space'],1,[0.1482967999909306],3.1675063200091245,4.203126620006515,None,1,None,1,,,,,,,quicsb,001,fr,0,0,2022-07-21_15h22.52.247,Cluster,2022.1.1,None,
,,,,1,0,1,0,17,0,17,0,,,none,,,,,,,,,,,,,,,,,,,,,,,,,,,,,,,,,,,,,,,,,,,,,,,,,,,,,,,,,,,,,,,,,,,,,,,,,,,,,,,,,,,,,,,,,,,,,,,,,,,,,,,,,,,,,,,,,,,,422.2520239000005,None,251.78056836089442,1.3740509429326502,0.000193978393523682,0,"[0.6632135970623718, 0.5163502765240485, 0.5305979189336811, 0.6862622381399477]","[1240.0067602552697, 1866.6607852642321, 2743.6695470818904, 5600.934153012532]",None,"[11.949863232820327, 9.512979454926166, 11.547737168085696, 1.1784144081800818]",False,423.25903760000074,426.00632499999483,426.00632499999483,427.24169149999216,None,0,,3.408573120017536,4.4404202200094005,None,1,None,1,,,,,,,quicsb,001,fr,0,0,2022-07-21_15h22.52.247,Cluster,2022.1.1,None,
,,,,1,0,1,0,18,0,18,0,,,both,,,,,,,,,,,,,,,,,,,,,,,,,,,,,,,,,,,,,,,,,,,,,,,,,,,,,,,,,,,,,,,,,,,,,,,,,,,,,,,,,,,,,,,,,,,,,,,,,,,,,,,,,,,,,,,,,,,,427.76581029999943,None,,,,,"[0.5587285596772025, 0.5587285596772025, 0.5587285596772025, 0.5587285596772025]","[2079.0968859074537, 1852.2647505445218, 1650.1802919166498, 1470.1435067689943]",Tone,"[10.0, 9.512979454926166, 9.609120762538604, 10.0]",True,428.761434,431.4777566999983,431.4777566999983,432.7124056999892,None,1,,3.2423070200020447,4.275421419995837,None,1,None,1,,0,,,,,quicsb,001,fr,0,0,2022-07-21_15h22.52.247,Cluster,2022.1.1,None,
,,,,1,0,1,0,19,0,19,0,,,both,,,,,,,,,,,,,,,,,,,,,,,,,,,,,,,,,,,,,,,,,,,,,,,,,,,,,,,,,,,,,,,,,,,,,,,,,,,,,,,,,,,,,,,,,,,,,,,,,,,,,,,,,,,,,,,,,,,,433.0900671999989,None,240.12114560330747,1.6243872183379746,0.00022525937790214654,1,"[0.6908081009170013, 0.6908081009170013, 0.6908081009170013, 0.6908081009170013]","[605.0673717409578, 480.242291206615, 381.1685591304995, 302.53368587047885]",Major_3rd,"[12.0, 8.0, 6.3401916021253175, 6.6749930698778375]",False,434.0996970999986,437.22203119999904,437.22203119999904,438.4518146999908,['space'],1,[0.16430030000628904],3.7747787200059975,4.813841020004475,None,1,None,1,,,,,,,quicsb,001,fr,0,0,2022-07-21_15h22.52.247,Cluster,2022.1.1,None,
,,,,2,0,2,0,0,0,0,0,,,none,,,,,,,,,,,,,,,,,,,,,,,,,,,,,,,,,,,,,,,,,,,,,,,,,,,,,,,,,,,,,,,,,,,,,,,,,,,,,,,,,,,,,,,,,,,,,,,,,,,,,,,,,,,,,,,,,,,,442.93026409999584,None,535.8867312681471,3.0,9.301044792367187e-05,1,"[0.6878380317825934, 0.5178609211439845, 0.753405943269322, 0.7449968735747703]","[253.08568032742818, 417.644983858131, 158.95706407601645, 1560.9808286318992]",None,"[7.37405094293265, 6.505598694224707, 8.476269928425005, 9.98733479588627]",False,443.9259644999984,446.9265865999914,446.9265865999914,448.1317196000018,['space'],1,[0.26073889998951927],3.7356862100132275,4.7527183100173716,None,1,None,1,,,,,,,quicsb,001,fr,0,0,2022-07-21_15h22.52.247,Cluster,2022.1.1,None,
,,,,2,0,2,0,1,0,1,0,,,both,,,,,,,,,,,,,,,,,,,,,,,,,,,,,,,,,,,,,,,,,,,,,,,,,,,,,,,,,,,,,,,,,,,,,,,,,,,,,,,,,,,,,,,,,,,,,,,,,,,,,,,,,,,,,,,,,,,,448.7197548999975,None,4000.0,-1.0,7.481178280472168e-05,1,"[0.545092226139542, 0.545092226139542, 0.545092226139542, 0.545092226139542]","[2519.842099789746, 2828.4271247461897, 3174.802103936399, 3563.594872561357]",Tone,"[11.272511997982248, 11.547737168085696, 10.427097004279265, 9.0]",False,449.7314181999973,452.4016721999942,452.4016721999942,453.63368040000205,['space'],1,[0.33458100000279956],3.198213809999288,4.235508710000431,None,1,None,1,,,,,,,quicsb,001,fr,0,0,2022-07-21_15h22.52.247,Cluster,2022.1.1,None,
,,,,2,0,2,0,2,0,2,0,,,frequency,,,,,,,,,,,,,,,,,,,,,,,,,,,,,,,,,,,,,,,,,,,,,,,,,,,,,,,,,,,,,,,,,,,,,,,,,,,,,,,,,,,,,,,,,,,,,,,,,,,,,,,,,,,,,,,,,,,,454.01136019999103,None,3966.651943269237,0.5650310828955563,8.895742385094323e-05,1,"[0.7977978756087134, 0.4994187999453552, 0.5345702907622281, 0.44979612651062495]","[2498.834140465658, 2804.846487692474, 3148.333733768645, 3533.885131567449]",Tone,"[11.272511997982248, 11.547737168085696, 11.0, 9.0]",False,455.02203140000347,457.8712547000032,457.8712547000032,459.11100999999326,['space'],1,[0.14207030000397936],3.3070717200171202,4.341549520016997,None,1,None,1,,,,,,,quicsb,001,fr,0,0,2022-07-21_15h22.52.247,Cluster,2022.1.1,None,
,,,,2,0,2,0,3,0,3,0,,,time,,,,,,,,,,,,,,,,,,,,,,,,,,,,,,,,,,,,,,,,,,,,,,,,,,,,,,,,,,,,,,,,,,,,,,,,,,,,,,,,,,,,,,,,,,,,,,,,,,,,,,,,,,,,,,,,,,,,459.43038619999425,None,,,,,"[0.40561695014863236, 0.40561695014863236, 0.40561695014863236, 0.40561695014863236]","[132.38798106477714, 1687.5232703949548, 5191.233753375234, 806.0490188459472]",None,"[8.250125814639645, 9.44561707139802, 2.0, 15.606086819012052]",True,460.43292649999785,462.67826849999256,462.67826849999256,463.91478009999264,None,1,,2.637771320005413,3.6673232199973427,None,1,None,1,,0,,,,,quicsb,001,fr,0,0,2022-07-21_15h22.52.247,Cluster,2022.1.1,None,
,,,,2,0,2,0,4,0,4,0,,,frequency,,,,,,,,,,,,,,,,,,,,,,,,,,,,,,,,,,,,,,,,,,,,,,,,,,,,,,,,,,,,,,,,,,,,,,,,,,,,,,,,,,,,,,,,,,,,,,,,,,,,,,,,,,,,,,,,,,,,464.1620441999985,None,500.0,2.0,8.994354575643942e-05,1,"[0.7280643617988094, 0.663041104856035, 0.49675213780106636, 0.6736992528374957]","[314.98026247371826, 353.5533905932737, 396.85026299204986, 445.44935907016963]",Tone,"[6.6749930698778375, 6.356615356648497, 6.505598694224707, 7.0]",False,465.1836156999925,468.1160830000008,468.1160830000008,469.35051959998964,['space'],1,[0.3299620000034338],3.5980223100050353,4.631957210003748,None,1,None,1,,,,,,,quicsb,001,fr,0,0,2022-07-21_15h22.52.247,Cluster,2022.1.1,None,
,,,,2,0,2,0,5,0,5,0,,,frequency,,,,,,,,,,,,,,,,,,,,,,,,,,,,,,,,,,,,,,,,,,,,,,,,,,,,,,,,,,,,,,,,,,,,,,,,,,,,,,,,,,,,,,,,,,,,,,,,,,,,,,,,,,,,,,,,,,,,469.85993799999414,None,3408.478015364979,4.0,0.00011657929591739041,1,"[0.5454069271021957, 0.6772925215216447, 0.732980283145177, 0.6959825116124236]","[5410.62158720085, 4820.315836379685, 4294.413199662238, 3825.887214744041]",Tone,"[1.7354919848833203, 3.0, 5.109973675280676, 7.0]",False,470.87337950000074,473.85636550000345,473.85636550000345,475.0928583999921,['space'],1,[0.2705385000008391],3.6708181200228864,4.675268120015971,None,1,None,1,,,,,,,quicsb,001,fr,0,0,2022-07-21_15h22.52.247,Cluster,2022.1.1,None,
,,,,2,0,2,0,6,0,6,0,,,both,,,,,,,,,,,,,,,,,,,,,,,,,,,,,,,,,,,,,,,,,,,,,,,,,,,,,,,,,,,,,,,,,,,,,,,,,,,,,,,,,,,,,,,,,,,,,,,,,,,,,,,,,,,,,,,,,,,,475.6142053999938,None,1120.2935272125646,7.0,0.00010988533444484244,1,"[0.5232999482323619, 0.5232999482323619, 0.5232999482323619, 0.5232999482323619]","[1778.35512361039, 1584.334300022801, 1411.481396996085, 1257.4869672627476]",Tone,"[9.44561707139802, 9.609120762538604, 10.533624096537752, 11.949863232820327]",False,476.61402100000123,479.2246884999913,479.2246884999913,480.4546979000006,['space'],1,[0.26763129999744706],3.126676120009506,4.1421002200077055,None,1,None,1,,,,,,,quicsb,001,fr,0,0,2022-07-21_15h22.52.247,Cluster,2022.1.1,None,
,,,,2,0,2,0,7,0,7,0,,,frequency,,,,,,,,,,,,,,,,,,,,,,,,,,,,,,,,,,,,,,,,,,,,,,,,,,,,,,,,,,,,,,,,,,,,,,,,,,,,,,,,,,,,,,,,,,,,,,,,,,,,,,,,,,,,,,,,,,,,480.8194999999978,None,,,,,"[0.4745852672386569, 0.7394043294059234, 0.5837546617412745, 0.47503002463698896]","[942.3651150442743, 1411.9523208725443, 2115.538154575788, 3169.7257884035384]",Perfect_5th,"[14.973304175529991, 10.533624096537752, 10.268044040814377, 10.427097004279265]",True,481.8177801999991,484.6374552999914,484.6374552999914,485.8543614999944,None,1,,3.278618620010093,4.308701520014438,None,1,None,1,,0,,,,,quicsb,001,fr,0,0,2022-07-21_15h22.52.247,Cluster,2022.1.1,None,
,,,,2,0,2,0,8,0,8,0,,,frequency,,,,,,,,,,,,,,,,,,,,,,,,,,,,,,,,,,,,,,,,,,,,,,,,,,,,,,,,,,,,,,,,,,,,,,,,,,,,,,,,,,,,,,,,,,,,,,,,,,,,,,,,,,,,,,,,,,,,486.1826901000022,None,812.2523963562351,10.0,0.00012243172279601027,1,"[0.5177553486034907, 0.7382622650528217, 0.4854670985602759, 0.5070951489512273]","[2046.7477839935486, 1624.5047927124701, 1289.3703084395784, 1023.3738919967743]",Major_3rd,"[10.0, 9.609120762538604, 11.205396031295534, 14.0]",False,487.2077352999913,489.97910270000284,489.97910270000284,491.1901144000003,['space'],1,[0.2993094999983441],3.271757410009741,4.273871710014646,None,1,None,1,,,,,,,quicsb,001,fr,0,0,2022-07-21_15h22.52.247,Cluster,2022.1.1,None,
,,,,2,0,2,0,9,0,9,0,,,both,,,,,,,,,,,,,,,,,,,,,,,,,,,,,,,,,,,,,,,,,,,,,,,,,,,,,,,,,,,,,,,,,,,,,,,,,,,,,,,,,,,,,,,,,,,,,,,,,,,,,,,,,,,,,,,,,,,,491.522934099994,None,2000.0,-2.0,5.942511137185092e-05,0,"[0.7155676682472193, 0.7155676682472193, 0.7155676682472193, 0.7155676682472193]","[396.8502629920499, 594.6035575013606, 890.8987181403394, 1334.8398541700344]",Perfect_5th,"[6.505598694224707, 12.0, 15.434644929157692, 11.0]",False,492.54659040000115,495.7089535999985,495.7089535999985,496.9135777999909,None,0,,3.902711510032532,4.9328428100270685,None,1,None,1,,,,,,,quicsb,001,fr,0,0,2022-07-21_15h22.52.247,Cluster,2022.1.1,None,
,,,,2,0,2,0,10,0,10,0,,,both,,,,,,,,,,,,,,,,,,,,,,,,,,,,,,,,,,,,,,,,,,,,,,,,,,,,,,,,,,,,,,,,,,,,,,,,,,,,,,,,,,,,,,,,,,,,,,,,,,,,,,,,,,,,,,,,,,,,497.52361299999757,None,2496.1803029109833,5.272511997982248,0.00015745892530833237,1,"[0.5550074298953241, 0.5550074298953241, 0.5550074298953241, 0.5550074298953241]","[3962.439238743194, 3530.132038505293, 3144.9901079705087, 2801.8676557549734]",Tone,"[6.5650310828955565, 9.0, 11.0, 11.547737168085696]",False,498.5366931000026,501.2212259999942,501.2212259999942,502.45648559999245,['space'],1,[0.3289327999955276],3.236717120016692,4.270697720014141,None,1,None,1,,,,,,,quicsb,001,fr,0,0,2022-07-21_15h22.52.247,Cluster,2022.1.1,None,
,,,,2,0,2,0,11,0,11,0,,,none,,,,,,,,,,,,,,,,,,,,,,,,,,,,,,,,,,,,,,,,,,,,,,,,,,,,,,,,,,,,,,,,,,,,,,,,,,,,,,,,,,,,,,,,,,,,,,,,,,,,,,,,,,,,,,,,,,,,502.8772622999968,None,,,,,"[0.568691523578116, 0.7814387395439022, 0.7563008270909204, 0.47659136926748036]","[525.9681283763579, 4382.24585773171, 704.7185576727887, 286.8933610815128]",None,"[9.90502565043273, 5.0, 14.84535255238231, 6.893847117749152]",True,503.87899460000335,507.03010659999563,507.03010659999563,508.263580999992,None,1,,3.602280220016837,4.633816220011795,None,1,None,1,,0,,,,,quicsb,001,fr,0,0,2022-07-21_15h22.52.247,Cluster,2022.1.1,None,
,,,,2,0,2,0,12,0,12,0,,,both,,,,,,,,,,,,,,,,,,,,,,,,,,,,,,,,,,,,,,,,,,,,,,,,,,,,,,,,,,,,,,,,,,,,,,,,,,,,,,,,,,,,,,,,,,,,,,,,,,,,,,,,,,,,,,,,,,,,508.5699755999958,None,535.8867312681471,1.0,7.388082491012497e-05,1,"[0.5219543030145162, 0.5219543030145162, 0.5219543030145162, 0.5219543030145162]","[212.66679023771422, 267.94336563407364, 337.5874865420479, 425.3335804754283]",Major_3rd,"[8.0, 7.131455333704845, 6.486254574389276, 6.923981367143192]",False,509.594603599995,512.1956594999938,512.1956594999938,513.4044684999972,['space'],1,[0.25826649999362417],3.135352409997722,4.172331309993751,None,1,None,1,,,,,,,quicsb,001,fr,0,0,2022-07-21_15h22.52.247,Cluster,2022.1.1,None,
,,,,2,0,2,0,13,0,13,0,,,frequency,,,,,,,,,,,,,,,,,,,,,,,,,,,,,,,,,,,,,,,,,,,,,,,,,,,,,,,,,,,,,,,,,,,,,,,,,,,,,,,,,,,,,,,,,,,,,,,,,,,,,,,,,,,,,,,,,,,,513.8100360999961,None,6487.479079973666,-5.002301975785692,7.62843893797404e-05,1,"[0.7902192245165309, 0.7846849779608085, 0.6898458072008138, 0.6408455370432014]","[4086.855726805723, 4587.340450255243, 5149.115558085941, 5779.686796310806]",Tone,"[6.0, 3.7547322211489256, 2.0, 1.1784144081800818]",False,514.8160391999991,518.0988761999906,518.0988761999906,519.3052527999971,['space'],1,[0.3276202999986708],3.9110013199970126,4.945317620004062,None,1,None,1,,,,,,,quicsb,001,fr,0,0,2022-07-21_15h22.52.247,Cluster,2022.1.1,None,
,,,,2,0,2,0,14,0,14,0,,,none,,,,,,,,,,,,,,,,,,,,,,,,,,,,,,,,,,,,,,,,,,,,,,,,,,,,,,,,,,,,,,,,,,,,,,,,,,,,,,,,,,,,,,,,,,,,,,,,,,,,,,,,,,,,,,,,,,,,519.8248127999977,None,2195.868299187214,4.268044040814378,0.00012938178607380005,0,"[0.4899449596080876, 0.5504238479004662, 0.7243660529967624, 0.439056740697388]","[495.5618173933973, 130.99718932314096, 450.9069007421967, 3679.169314992696]",None,"[8.651526734635146, 8.250125814639645, 7.0, 8.018639609504586]",False,520.8272278999939,523.6115497999999,523.6115497999999,524.8431186999951,None,0,,3.226477620002697,4.240136420005001,None,1,None,1,,,,,,,quicsb,001,fr,0,0,2022-07-21_15h22.52.247,Cluster,2022.1.1,None,
,,,,2,0,2,0,15,0,15,0,,,none,,,,,,,,,,,,,,,,,,,,,,,,,,,,,,,,,,,,,,,,,,,,,,,,,,,,,,,,,,,,,,,,,,,,,,,,,,,,,,,,,,,,,,,,,,,,,,,,,,,,,,,,,,,,,,,,,,,,525.1312012999988,None,,,,,"[0.7334343213480412, 0.44733009641696386, 0.6110304305282042, 0.6542331426241492]","[5174.785073807584, 189.82406406060028, 7636.239933105613, 153.09586422351728]",None,"[2.0, 8.322220697402269, 2.0, 8.476269928425005]",True,526.1280019999977,528.9466114999959,528.9466114999959,530.1857979999913,None,1,,3.4797147200006293,4.481100719989627,None,1,None,1,,0,,,,,quicsb,001,fr,0,0,2022-07-21_15h22.52.247,Cluster,2022.1.1,None,
,,,,2,0,2,0,16,0,16,0,,,both,,,,,,,,,,,,,,,,,,,,,,,,,,,,,,,,,,,,,,,,,,,,,,,,,,,,,,,,,,,,,,,,,,,,,,,,,,,,,,,,,,,,,,,,,,,,,,,,,,,,,,,,,,,,,,,,,,,,530.6611802999978,None,330.93119598036805,0.48625457438927666,9.992560101990594e-05,1,"[0.6609672376070006, 0.6609672376070006, 0.6609672376070006, 0.6609672376070006]","[208.47358994127566, 234.00369278389257, 262.6602643141653, 294.8261782915593]",Tone,"[8.0, 7.624387218337975, 7.131455333704845, 6.893847117749152]",False,531.6733221000031,534.692320599992,534.692320599992,535.9198655999935,['space'],1,[0.2883778999967035],3.6708584200096084,4.7048435200122185,None,1,None,1,,,,,,,quicsb,001,fr,0,0,2022-07-21_15h22.52.247,Cluster,2022.1.1,None,
,,,,2,0,2,0,17,0,17,0,,,frequency,,,,,,,,,,,,,,,,,,,,,,,,,,,,,,,,,,,,,,,,,,,,,,,,,,,,,,,,,,,,,,,,,,,,,,,,,,,,,,,,,,,,,,,,,,,,,,,,,,,,,,,,,,,,,,,,,,,,536.4463420999964,None,189.4645708137998,-4.0,0.00019169242467719167,1,"[0.5950919259115763, 0.6908343355214839, 0.48408432599558976, 0.6744623341655489]","[477.4208019552084, 378.9291416275996, 300.7562590205292, 238.7104009776042]",Major_3rd,"[8.0, 6.3401916021253175, 6.6749930698778375, 7.624387218337975]",False,537.4606496999913,540.2600009000016,540.2600009000016,541.4924727000034,['space'],1,[0.38532510001095943],3.4641688100091415,4.495207110012416,None,1,None,1,,,,,,,quicsb,001,fr,0,0,2022-07-21_15h22.52.247,Cluster,2022.1.1,None,
,,,,2,0,2,0,18,0,18,0,,,time,,,,,,,,,,,,,,,,,,,,,,,,,,,,,,,,,,,,,,,,,,,,,,,,,,,,,,,,,,,,,,,,,,,,,,,,,,,,,,,,,,,,,,,,,,,,,,,,,,,,,,,,,,,,,,,,,,,,542.0077043999918,None,203.0630990890589,-5.0,0.00014589441197552095,0,"[0.47004133486555, 0.47004133486555, 0.47004133486555, 0.47004133486555]","[2907.1314325514486, 693.0614549495045, 5250.985813857928, 677.1457576819136]",None,"[11.547737168085696, 14.84535255238231, 1.7354919848833203, 14.0]",False,543.0316061999911,545.465958300003,545.465958300003,546.6657316999917,None,0,,2.902886009993381,3.9259774099919014,None,1,None,1,,,,,,,quicsb,001,fr,0,0,2022-07-21_15h22.52.247,Cluster,2022.1.1,None,
,,,,2,0,2,0,19,0,19,0,,,none,,,,,,,,,,,,,,,,,,,,,,,,,,,,,,,,,,,,,,,,,,,,,,,,,,,,,,,,,,,,,,,,,,,,,,,,,,,,,,,,,,,,,,,,,,,,,,,,,,,,,,,,,,,,,,,,,,,,546.9983772999985,None,,,,,"[0.5364666472084736, 0.67002033505368, 0.6088504101712271, 0.6926899254611649]","[7929.912885383591, 763.3567815968144, 881.6950910383563, 749.8245816061761]",None,"[2.6058941440388805, 15.424494065508316, 15.434644929157692, 15.424494065508316]",True,548.0216832000006,550.8659404999926,550.8659404999926,552.0744987999933,None,1,,3.543698220004444,4.564757420012029,None,1,None,1,,0,,,,,quicsb,001,fr,0,0,2022-07-21_15h22.52.247,Cluster,2022.1.1,None,
,,,,3,0,3,0,0,0,0,0,,,time,,,,,,,,,,,,,,,,,,,,,,,,,,,,,,,,,,,,,,,,,,,,,,,,,,,,,,,,,,,,,,,,,,,,,,,,,,,,,,,,,,,,,,,,,,,,,,,,,,,,,,,,,,,,,,,,,,,,559.9882436999906,None,2827.7466490173456,5.547737168085696,0.00012411247856347336,1,"[0.6530005484983576, 0.6530005484983576, 0.6530005484983576, 0.6530005484983576]","[380.2033768131186, 1497.291290399781, 296.85732123857866, 562.859323667373]",None,"[6.3401916021253175, 10.0, 6.893847117749152, 11.0]",False,560.9682370999944,563.949631800002,563.949631800002,565.1781383999914,['space'],1,[0.23143140001047868],3.6314707200217526,4.641248620027909,None,1,None,1,,,,,,,quicsb,001,fr,0,0,2022-07-21_15h22.52.247,Cluster,2022.1.1,None,
,,,,3,0,3,0,1,0,1,0,,,frequency,,,,,,,,,,,,,,,,,,,,,,,,,,,,,,,,,,,,,,,,,,,,,,,,,,,,,,,,,,,,,,,,,,,,,,,,,,,,,,,,,,,,,,,,,,,,,,,,,,,,,,,,,,,,,,,,,,,,565.6781577999936,None,4001.9662335484268,0.5650310828955563,8.972654755798177e-05,1,"[0.5514084377099622, 0.47116480550438, 0.5591354709468532, 0.711129890454388]","[794.0906761344983, 1189.7916797341077, 1782.6732937546076, 2670.9920117915917]",Perfect_5th,"[15.606086819012052, 12.0, 9.44561707139802, 11.557044354572005]",False,566.67629019999,569.2940497999953,569.2940497999953,570.526567199995,['space'],1,[0.2715194999909727],3.2996938200085424,4.3098262200073805,None,1,None,1,,,,,,,quicsb,001,fr,0,0,2022-07-21_15h22.52.247,Cluster,2022.1.1,None,
,,,,3,0,3,0,2,0,2,0,,,time,,,,,,,,,,,,,,,,,,,,,,,,,,,,,,,,,,,,,,,,,,,,,,,,,,,,,,,,,,,,,,,,,,,,,,,,,,,,,,,,,,,,,,,,,,,,,,,,,,,,,,,,,,,,,,,,,,,,571.0525747999927,None,329.87697769322364,-6.0,4.749197086349176e-05,0,"[0.5391187080240087, 0.5391187080240087, 0.5391187080240087, 0.5391187080240087]","[126.89768183135223, 1303.6434684735573, 3879.496528021872, 1826.9868116309835]",None,"[8.104446192087604, 11.205396031295534, 7.0, 9.512979454926166]",False,572.0629092000017,574.7210590999894,574.7210590999894,575.9448048999911,None,0,,3.1945993100089254,4.207745510007953,None,1,None,1,,,,,,,quicsb,001,fr,0,0,2022-07-21_15h22.52.247,Cluster,2022.1.1,None,
,,,,3,0,3,0,3,0,3,0,,,frequency,,,,,,,,,,,,,,,,,,,,,,,,,,,,,,,,,,,,,,,,,,,,,,,,,,,,,,,,,,,,,,,,,,,,,,,,,,,,,,,,,,,,,,,,,,,,,,,,,,,,,,,,,,,,,,,,,,,,576.3079848999914,None,2639.015821545789,-3.0,5.4693453493152915e-05,0,"[0.630046855639954, 0.6055822121283492, 0.7921107227398697, 0.5057866497617939]","[1047.2941228206273, 1319.507910772895, 1662.4757922855763, 2094.588245641254]",Major_3rd,"[14.0, 11.205396031295534, 9.609120762538604, 10.0]",False,577.3381807999976,580.3965876000002,580.3965876000002,581.6054414999962,None,0,,3.571228010012419,4.586986210008035,None,1,None,1,,,,,,,quicsb,001,fr,0,0,2022-07-21_15h22.52.247,Cluster,2022.1.1,None,
,,,,3,0,3,0,4,0,4,0,,,both,,,,,,,,,,,,,,,,,,,,,,,,,,,,,,,,,,,,,,,,,,,,,,,,,,,,,,,,,,,,,,,,,,,,,,,,,,,,,,,,,,,,,,,,,,,,,,,,,,,,,,,,,,,,,,,,,,,,581.9790520999959,None,353.5533905932738,-7.0,3.9581673965746926e-05,0,"[0.7749976478634916, 0.7749976478634916, 0.7749976478634916, 0.7749976478634916]","[140.30775603867167, 176.77669529663694, 222.72467953508487, 280.6155120773433]",Major_3rd,"[8.383502550706392, 8.452616941870152, 7.880489113763942, 7.0]",False,583.0100527000031,586.3799429999926,586.3799429999926,587.6093594999984,None,0,,4.125260109998635,5.14519411000947,None,1,None,1,,,,,,,quicsb,001,fr,0,0,2022-07-21_15h22.52.247,Cluster,2022.1.1,None,
,,,,3,0,3,0,5,0,5,0,,,time,,,,,,,,,,,,,,,,,,,,,,,,,,,,,,,,,,,,,,,,,,,,,,,,,,,,,,,,,,,,,,,,,,,,,,,,,,,,,,,,,,,,,,,,,,,,,,,,,,,,,,,,,,,,,,,,,,,,588.2021126000036,None,,,,,"[0.505740662560403, 0.505740662560403, 0.505740662560403, 0.505740662560403]","[3557.1666371483752, 1495.69518472103, 367.11491659539905, 287.6067351030292]",None,"[9.0, 10.0, 6.3401916021253175, 6.893847117749152]",True,589.1961165999965,591.7422236999992,591.7422236999992,592.9465536999924,None,1,,3.027157119999174,4.028123020005296,None,1,None,1,,0,,,,,quicsb,001,fr,0,0,2022-07-21_15h22.52.247,Cluster,2022.1.1,None,
,,,,3,0,3,0,6,0,6,0,,,both,,,,,,,,,,,,,,,,,,,,,,,,,,,,,,,,,,,,,,,,,,,,,,,,,,,,,,,,,,,,,,,,,,,,,,,,,,,,,,,,,,,,,,,,,,,,,,,,,,,,,,,,,,,,,,,,,,,,593.280184999996,None,284.1250676631745,0.8938471177491522,0.0001455651285472546,1,"[0.4449351791225965, 0.4449351791225965, 0.4449351791225965, 0.4449351791225965]","[178.98757677581932, 200.90676204971732, 225.5102156495295, 253.12665857265932]",Tone,"[8.452616941870152, 8.12511642922717, 7.624387218337975, 7.37405094293265]",False,594.278879599995,596.651664399993,596.651664399993,597.8551536000014,['space'],1,[0.20786360000784043],2.785696620019735,3.791412920021685,None,1,None,1,,,,,,,quicsb,001,fr,0,0,2022-07-21_15h22.52.247,Cluster,2022.1.1,None,
,,,,3,0,3,0,7,0,7,0,,,both,,,,,,,,,,,,,,,,,,,,,,,,,,,,,,,,,,,,,,,,,,,,,,,,,,,,,,,,,,,,,,,,,,,,,,,,,,,,,,,,,,,,,,,,,,,,,,,,,,,,,,,,,,,,,,,,,,,,598.1337589999894,None,176.7766952966369,-2.0,0.0002780315447610839,1,"[0.7246962650798119, 0.7246962650798119, 0.7246962650798119, 0.7246962650798119]","[280.61551207734334, 250.00000000000006, 222.72467953508487, 198.42513149602496]",Tone,"[7.0, 7.37405094293265, 7.880489113763942, 8.12511642922717]",False,600.6985088999936,603.8906439999992,603.8906439999992,605.120181899998,['space'],1,[0.19905100000323728],3.91541516003781,4.938976460049162,None,1,None,1,,,,,,,quicsb,001,fr,0,0,2022-07-21_15h22.52.247,Cluster,2022.1.1,None,
,,,,3,0,3,0,8,0,8,0,,,both,,,,,,,,,,,,,,,,,,,,,,,,,,,,,,,,,,,,,,,,,,,,,,,,,,,,,,,,,,,,,,,,,,,,,,,,,,,,,,,,,,,,,,,,,,,,,,,,,,,,,,,,,,,,,,,,,,,,605.674772600003,None,202.6581901831918,2.1251164292271705,0.00033236891292326654,1,"[0.7097677471774952, 0.7097677471774952, 0.7097677471774952, 0.7097677471774952]","[127.66665987270093, 143.30098054152793, 160.84991214338504, 180.54792185484666]",Tone,"[8.104446192087604, 8.383502550706392, 8.50402309052194, 8.452616941870152]",False,606.6960923000006,609.8512885999953,609.8512885999953,611.0865235999954,['space'],1,[0.20441479999863077],3.8434530200029258,4.847582219998003,None,1,None,1,,,,,,,quicsb,001,fr,0,0,2022-07-21_15h22.52.247,Cluster,2022.1.1,None,
,,,,3,0,3,0,9,0,9,0,,,time,,,,,,,,,,,,,,,,,,,,,,,,,,,,,,,,,,,,,,,,,,,,,,,,,,,,,,,,,,,,,,,,,,,,,,,,,,,,,,,,,,,,,,,,,,,,,,,,,,,,,,,,,,,,,,,,,,,,611.6104979999945,None,557.331616581632,5.0,0.00011114414259290728,1,"[0.7463783243264087, 0.7463783243264087, 0.7463783243264087, 0.7463783243264087]","[5245.280178098018, 2761.2307234050127, 367.39209838663675, 246.53334529073348]",None,"[1.7354919848833203, 11.547737168085696, 6.3401916021253175, 7.37405094293265]",False,612.6060632000008,615.8907991000015,615.8907991000015,617.1082698999962,['space'],1,[0.23045200000342447],4.00342712001293,5.011871720009367,None,1,None,1,,,,,,,quicsb,001,fr,0,0,2022-07-21_15h22.52.247,Cluster,2022.1.1,None,
,,,,3,0,3,0,10,0,10,0,,,time,,,,,,,,,,,,,,,,,,,,,,,,,,,,,,,,,,,,,,,,,,,,,,,,,,,,,,,,,,,,,,,,,,,,,,,,,,,,,,,,,,,,,,,,,,,,,,,,,,,,,,,,,,,,,,,,,,,,617.6795684999961,None,2462.2888266898335,-3.0,6.02174900085011e-05,0,"[0.5497010730289791, 0.5497010730289791, 0.5497010730289791, 0.5497010730289791]","[927.5574389296942, 3345.0730644183745, 155.48060631809983, 1002.1223962213985]",None,"[15.0, 10.0, 8.476269928425005, 14.321076609125381]",False,620.7883148999972,623.4519820999994,623.4519820999994,624.6652976999903,None,0,,3.2539514600503026,4.267908560053911,None,1,None,1,,,,,,,quicsb,001,fr,0,0,2022-07-21_15h22.52.247,Cluster,2022.1.1,None,
,,,,3,0,3,0,11,0,11,0,,,none,,,,,,,,,,,,,,,,,,,,,,,,,,,,,,,,,,,,,,,,,,,,,,,,,,,,,,,,,,,,,,,,,,,,,,,,,,,,,,,,,,,,,,,,,,,,,,,,,,,,,,,,,,,,,,,,,,,,625.087139299998,None,870.5505632961246,11.0,0.00014324970272564454,1,"[0.4459166334383972, 0.6923220839599781, 0.7943977907452322, 0.7288137639456246]","[135.5798308963628, 170.62575220269076, 648.1307300734782, 236.84037783562184]",None,"[8.250125814639645, 8.50402309052194, 13.903905323176307, 7.624387218337975]",False,626.0995124999899,629.0572316000034,629.0572316000034,630.2738013999915,['space'],1,[0.14698370000405703],3.7111517100129277,4.743189610016998,None,1,None,1,,,,,,,quicsb,001,fr,0,0,2022-07-21_15h22.52.247,Cluster,2022.1.1,None,
,,,,3,0,3,0,12,0,12,0,,,none,,,,,,,,,,,,,,,,,,,,,,,,,,,,,,,,,,,,,,,,,,,,,,,,,,,,,,,,,,,,,,,,,,,,,,,,,,,,,,,,,,,,,,,,,,,,,,,,,,,,,,,,,,,,,,,,,,,,630.8824020999891,None,3899.7933093006986,1.0,9.220878072065328e-05,1,"[0.6042512329557921, 0.5920914564727121, 0.5399984561597236, 0.4258916163759966]","[149.82403564540596, 235.6175807576079, 155.99925500740787, 4114.408622548087]",None,"[8.476269928425005, 7.624387218337975, 8.476269928425005, 6.0]",False,631.8929898999922,634.6803808999975,634.6803808999975,635.909261599998,['space'],1,[0.24103230000764597],3.1713779200217687,4.208970320018125,None,1,None,1,,,,,,,quicsb,001,fr,0,0,2022-07-21_15h22.52.247,Cluster,2022.1.1,None,
,,,,3,0,3,0,13,0,13,0,,,none,,,,,,,,,,,,,,,,,,,,,,,,,,,,,,,,,,,,,,,,,,,,,,,,,,,,,,,,,,,,,,,,,,,,,,,,,,,,,,,,,,,,,,,,,,,,,,,,,,,,,,,,,,,,,,,,,,,,636.1622459999926,None,707.1067811865476,7.0,9.940581809693379e-05,1,"[0.6069914233312428, 0.516504262633023, 0.45880865012530475, 0.4344037581801576]","[231.3292207706896, 408.098661961091, 418.60808885655456, 7176.402848002058]",None,"[7.624387218337975, 6.505598694224707, 6.505598694224707, 1.3362064578969797]",False,638.0217162999907,640.6510362999979,640.6510362999979,641.8834281000018,['space'],1,[0.21033750000060536],3.038116110008559,4.070888410002226,None,1,None,1,,,,,,,quicsb,001,fr,0,0,2022-07-21_15h22.52.247,Cluster,2022.1.1,None,
,,,,3,0,3,0,14,0,14,0,,,frequency,,,,,,,,,,,,,,,,,,,,,,,,,,,,,,,,,,,,,,,,,,,,,,,,,,,,,,,,,,,,,,,,,,,,,,,,,,,,,,,,,,,,,,,,,,,,,,,,,,,,,,,,,,,,,,,,,,,,642.130989199999,None,143.97537708009682,2.3835025507063916,0.0007286463300950519,1,"[0.6295423796168318, 0.7953135977405462, 0.6154853113564929, 0.6322182820932761]","[362.7952164995317, 287.95075416019364, 228.5466650344639, 181.39760824976585]",Major_3rd,"[6.356615356648497, 6.893847117749152, 7.624387218337975, 8.452616941870152]",False,643.1342746000009,646.1894996999908,646.1894996999908,647.3967579000018,['space'],1,[0.20355770000605844],3.6775670200004242,4.715795320007601,None,1,None,1,,,,,,,quicsb,001,fr,0,0,2022-07-21_15h22.52.247,Cluster,2022.1.1,None,
,,,,3,0,3,0,15,0,15,0,,,none,,,,,,,,,,,,,,,,,,,,,,,,,,,,,,,,,,,,,,,,,,,,,,,,,,,,,,,,,,,,,,,,,,,,,,,,,,,,,,,,,,,,,,,,,,,,,,,,,,,,,,,,,,,,,,,,,,,,647.9145939000009,None,,,,,"[0.5522458364807326, 0.4142547172215765, 0.6030460568966104, 0.510498967369524]","[7942.883113064699, 304.6300562514634, 379.8390351967198, 397.7750654373445]",None,"[2.6058941440388805, 6.6749930698778375, 6.3401916021253175, 6.505598694224707]",True,648.9145012999943,651.5237848999968,651.5237848999968,652.760841700001,None,1,,3.107972920013708,4.127067720008199,None,1,None,1,,0,,,,,quicsb,001,fr,0,0,2022-07-21_15h22.52.247,Cluster,2022.1.1,None,
,,,,3,0,3,0,16,0,16,0,,,frequency,,,,,,,,,,,,,,,,,,,,,,,,,,,,,,,,,,,,,,,,,,,,,,,,,,,,,,,,,,,,,,,,,,,,,,,,,,,,,,,,,,,,,,,,,,,,,,,,,,,,,,,,,,,,,,,,,,,,653.0919531999971,None,353.5533905932738,-6.0,4.441136864173166e-05,0,"[0.47439755949732243, 0.6663229760737195, 0.430530462087781, 0.6914713745926537]","[1781.7974362806788, 1189.2071150027211, 793.7005259840998, 529.7315471796477]",Perfect_5th,"[9.44561707139802, 12.0, 15.606086819012052, 9.90502565043273]",False,654.1265254000027,656.7344891999965,656.7344891999965,657.965733399993,None,0,,3.305063310006517,4.322048210000503,None,1,None,1,,,,,,,quicsb,001,fr,0,0,2022-07-21_15h22.52.247,Cluster,2022.1.1,None,
,,,,3,0,3,0,17,0,17,0,,,time,,,,,,,,,,,,,,,,,,,,,,,,,,,,,,,,,,,,,,,,,,,,,,,,,,,,,,,,,,,,,,,,,,,,,,,,,,,,,,,,,,,,,,,,,,,,,,,,,,,,,,,,,,,,,,,,,,,,658.4904272999993,None,225.18841813819114,1.8804891137639423,0.00026832788374992297,1,"[0.6132475476864978, 0.6132475476864978, 0.6132475476864978, 0.6132475476864978]","[7476.070541887162, 509.95392880620824, 1102.4879296466625, 243.6130911283883]",None,"[1.8893666602066688, 9.0, 13.0, 7.37405094293265]",False,659.4899945999932,662.3819435999903,662.3819435999903,663.6133391999902,['space'],1,[0.314466399999219],3.476947220013244,4.511540420018719,None,1,None,1,,,,,,,quicsb,001,fr,0,0,2022-07-21_15h22.52.247,Cluster,2022.1.1,None,
,,,,3,0,3,0,18,0,18,0,,,frequency,,,,,,,,,,,,,,,,,,,,,,,,,,,,,,,,,,,,,,,,,,,,,,,,,,,,,,,,,,,,,,,,,,,,,,,,,,,,,,,,,,,,,,,,,,,,,,,,,,,,,,,,,,,,,,,,,,,,664.0629564999981,None,4986.378356595783,-3.389319269345475,0.00010276163450144633,1,"[0.41224237611508857, 0.4940859888128706, 0.6539061849592804, 0.6461563002146647]","[1978.8455621929024, 2493.189178297892, 3141.221527107616, 3957.691124385804]",Major_3rd,"[9.801872696302679, 11.272511997982248, 11.0, 6.5650310828955565]",False,665.0729108999949,667.6551513000013,667.6551513000013,668.8754019999906,['space'],1,[0.23471000000427011],3.2273720200173557,4.238673220024793,None,1,None,1,,,,,,,quicsb,001,fr,0,0,2022-07-21_15h22.52.247,Cluster,2022.1.1,None,
,,,,3,0,3,0,19,0,19,0,,,frequency,,,,,,,,,,,,,,,,,,,,,,,,,,,,,,,,,,,,,,,,,,,,,,,,,,,,,,,,,,,,,,,,,,,,,,,,,,,,,,,,,,,,,,,,,,,,,,,,,,,,,,,,,,,,,,,,,,,,669.3673154999997,None,,,,,"[0.7035935747911435, 0.618430077841684, 0.5596284390022113, 0.6237937413205659]","[4167.247032012262, 2781.3037102508783, 1856.297519496929, 1238.9299551107385]",Perfect_5th,"[6.0, 11.547737168085696, 9.512979454926166, 11.949863232820327]",True,670.3653648000036,673.2627106,673.2627106,674.4810723999981,None,1,,3.532673720008461,4.546841920004226,None,1,None,1,,0,,,,,quicsb,001,fr,0,0,2022-07-21_15h22.52.247,Cluster,2022.1.1,None,
,,,,4,0,4,0,0,0,0,0,,,both,,,,,,,,,,,,,,,,,,,,,,,,,,,,,,,,,,,,,,,,,,,,,,,,,,,,,,,,,,,,,,,,,,,,,,,,,,,,,,,,,,,,,,,,,,,,,,,,,,,,,,,,,,,,,,,,,,,,676.6151280999911,None,5278.031643091578,-5.0,8.012985481154062e-05,1,"[0.5940498284179528, 0.5940498284179528, 0.5940498284179528, 0.5940498284179528]","[3324.951584571151, 3732.13196614723, 4189.176491282507, 4702.1916251344355]",Tone,"[10.0, 8.018639609504586, 6.0, 3.0]",False,677.6202673999942,680.4351112000004,680.4351112000004,681.6544526999933,['space'],1,[0.14493000000948086],3.4146885100199142,4.427861510019284,None,1,None,1,,,,,,,quicsb,001,fr,0,0,2022-07-21_15h22.52.247,Cluster,2022.1.1,None,
,,,,4,0,4,0,1,0,1,0,,,none,,,,,,,,,,,,,,,,,,,,,,,,,,,,,,,,,,,,,,,,,,,,,,,,,,,,,,,,,,,,,,,,,,,,,,,,,,,,,,,,,,,,,,,,,,,,,,,,,,,,,,,,,,,,,,,,,,,,682.0850281000021,None,6384.278571321099,-5.002301975785692,7.452570946813497e-05,1,"[0.5610152361673296, 0.42896747819554143, 0.5719404245303827, 0.43369490098238206]","[1367.4767917413758, 404.2357057724286, 130.89843548303665, 3509.334185231814]",None,"[11.0, 6.505598694224707, 8.250125814639645, 9.346823562676974]",False,683.1031086000003,685.6942177000019,685.6942177000019,686.9141282999917,['space'],1,[0.240050100008375],3.0154410200048005,4.0378769200033275,None,1,None,1,,,,,,,quicsb,001,fr,0,0,2022-07-21_15h22.52.247,Cluster,2022.1.1,None,
,,,,4,0,4,0,2,0,2,0,,,time,,,,,,,,,,,,,,,,,,,,,,,,,,,,,,,,,,,,,,,,,,,,,,,,,,,,,,,,,,,,,,,,,,,,,,,,,,,,,,,,,,,,,,,,,,,,,,,,,,,,,,,,,,,,,,,,,,,,687.1999035999906,None,1515.7165665103996,-3.0,3.5135546789290564e-05,0,"[0.5352052715278778, 0.5352052715278778, 0.5352052715278778, 0.5352052715278778]","[5244.692121748601, 1256.1166397420338, 1372.0722179984716, 279.5539151309087]",None,"[1.7354919848833203, 11.949863232820327, 11.0, 7.0]",False,688.2357227999892,690.871519399996,690.871519399996,692.07417539999,None,0,,3.1623951100045815,4.1932612099917606,None,1,None,1,,,,,,,quicsb,001,fr,0,0,2022-07-21_15h22.52.247,Cluster,2022.1.1,None,
,,,,4,0,4,0,3,0,3,0,,,both,,,,,,,,,,,,,,,,,,,,,,,,,,,,,,,,,,,,,,,,,,,,,,,,,,,,,,,,,,,,,,,,,,,,,,,,,,,,,,,,,,,,,,,,,,,,,,,,,,,,,,,,,,,,,,,,,,,,692.4705452999915,None,3937.241908975815,1.0,9.294636937646976e-05,1,"[0.7037967680736059, 0.7037967680736059, 0.7037967680736059, 0.7037967680736059]","[6249.981948161491, 5568.100906017333, 4960.613959646904, 4419.4046178385]",Tone,"[0.9309278551451889, 1.1784144081800818, 2.610680730654525, 5.0]",False,693.4627261999995,696.6126023999968,696.6126023999968,697.8126015000016,['space'],1,[0.24180279999563936],3.8303852200042456,4.844659620008315,None,1,None,1,,,,,,,quicsb,001,fr,0,0,2022-07-21_15h22.52.247,Cluster,2022.1.1,None,
,,,,4,0,4,0,4,0,4,0,,,none,,,,,,,,,,,,,,,,,,,,,,,,,,,,,,,,,,,,,,,,,,,,,,,,,,,,,,,,,,,,,,,,,,,,,,,,,,,,,,,,,,,,,,,,,,,,,,,,,,,,,,,,,,,,,,,,,,,,698.3664513999975,None,406.12619817811805,-5.0,4.2873658564129765e-05,0,"[0.7262573338496078, 0.7580289040874141, 0.771708764252049, 0.7985424387120705]","[541.0875735685553, 129.97422813298425, 3569.8715090300643, 1351.4960315002188]",None,"[10.0, 8.250125814639645, 9.0, 11.0]",False,699.3736043999961,702.6769950000016,702.6769950000016,703.8824248000019,None,0,,4.073221310012741,5.10011211001256,None,1,None,1,,,,,,,quicsb,001,fr,0,0,2022-07-21_15h22.52.247,Cluster,2022.1.1,None,
,,,,4,0,4,0,5,0,5,0,,,time,,,,,,,,,,,,,,,,,,,,,,,,,,,,,,,,,,,,,,,,,,,,,,,,,,,,,,,,,,,,,,,,,,,,,,,,,,,,,,,,,,,,,,,,,,,,,,,,,,,,,,,,,,,,,,,,,,,,704.5146526000026,None,,,,,"[0.6060450500768519, 0.6060450500768519, 0.6060450500768519, 0.6060450500768519]","[363.98829236014734, 352.9765241324084, 4896.3324694338535, 296.0493880680768]",None,"[6.356615356648497, 6.356615356648497, 2.610680730654525, 6.893847117749152]",True,705.508379299994,708.3511550999974,708.3511550999974,709.5620890999999,None,1,,3.436956920006196,4.438699720005388,None,1,None,1,,0,,,,,quicsb,001,fr,0,0,2022-07-21_15h22.52.247,Cluster,2022.1.1,None,
,,,,4,0,4,0,6,0,6,0,,,frequency,,,,,,,,,,,,,,,,,,,,,,,,,,,,,,,,,,,,,,,,,,,,,,,,,,,,,,,,,,,,,,,,,,,,,,,,,,,,,,,,,,,,,,,,,,,,,,,,,,,,,,,,,,,,,,,,,,,,710.0111348999926,None,1071.7734625362941,7.0,0.00010534195118358306,1,"[0.4147334486372186, 0.656108687331177, 0.7889880674929683, 0.7520715965002005]","[2700.699892336383, 2143.5469250725887, 1701.334321901713, 1350.3499461681913]",Major_3rd,"[11.557044354572005, 10.268044040814377, 9.44561707139802, 11.0]",False,711.0320361999911,713.9016856999951,713.9016856999951,715.1038334999903,['space'],1,[0.20991160000266973],3.6431970100093167,4.665040910011157,None,1,None,1,,,,,,,quicsb,001,fr,0,0,2022-07-21_15h22.52.247,Cluster,2022.1.1,None,
,,,,4,0,4,0,7,0,7,0,,,both,,,,,,,,,,,,,,,,,,,,,,,,,,,,,,,,,,,,,,,,,,,,,,,,,,,,,,,,,,,,,,,,,,,,,,,,,,,,,,,,,,,,,,,,,,,,,,,,,,,,,,,,,,,,,,,,,,,,715.74206769999,None,1624.5047927124701,0.0,5.785700826325816e-05,0,"[0.636073575087465, 0.636073575087465, 0.636073575087465, 0.636073575087465]","[2578.7406168791576, 2297.396709994069, 2046.7477839935489, 1823.4449771164327]",Tone,"[11.557044354572005, 10.792271583857126, 10.0, 9.512979454926166]",False,716.757400699993,719.69488119999,719.69488119999,720.9289572999987,None,0,,3.5706176099920413,4.581186409996008,None,1,None,1,,,,,,,quicsb,001,fr,0,0,2022-07-21_15h22.52.247,Cluster,2022.1.1,None,
,,,,4,0,4,0,8,0,8,0,,,none,,,,,,,,,,,,,,,,,,,,,,,,,,,,,,,,,,,,,,,,,,,,,,,,,,,,,,,,,,,,,,,,,,,,,,,,,,,,,,,,,,,,,,,,,,,,,,,,,,,,,,,,,,,,,,,,,,,,721.3756831999926,None,422.67355412890305,0.9239813671431916,8.385836373063827e-05,1,"[0.5238449041030364, 0.5907621977929342, 0.44159901608200525, 0.5644974956454752]","[2385.2074825349337, 215.7433393651393, 804.2829444430713, 4177.595733962552]",None,"[11.0, 7.880489113763942, 15.606086819012052, 6.0]",False,722.3851746,724.966483199998,724.966483199998,726.1726139999955,['space'],1,[0.3053881000087131],3.139875020016916,4.164079820009647,None,1,None,1,,,,,,,quicsb,001,fr,0,0,2022-07-21_15h22.52.247,Cluster,2022.1.1,None,
,,,,4,0,4,0,9,0,9,0,,,time,,,,,,,,,,,,,,,,,,,,,,,,,,,,,,,,,,,,,,,,,,,,,,,,,,,,,,,,,,,,,,,,,,,,,,,,,,,,,,,,,,,,,,,,,,,,,,,,,,,,,,,,,,,,,,,,,,,,726.6090976999985,None,160.18219084904905,2.50402309052194,0.0005476078397037514,1,"[0.4115706005409552, 0.4115706005409552, 0.4115706005409552, 0.4115706005409552]","[5333.914470414331, 2390.6230578957025, 844.9436782298502, 523.550759611296]",None,"[1.7354919848833203, 11.0, 15.434644929157692, 9.90502565043273]",False,727.6124454999954,729.8761623000028,729.8761623000028,731.0978691999917,['space'],1,[0.17831699999806006],2.671366520007723,3.6807331200107,None,1,None,1,,,,,,,quicsb,001,fr,0,0,2022-07-21_15h22.52.247,Cluster,2022.1.1,None,
,,,,4,0,4,0,10,0,10,0,,,time,,,,,,,,,,,,,,,,,,,,,,,,,,,,,,,,,,,,,,,,,,,,,,,,,,,,,,,,,,,,,,,,,,,,,,,,,,,,,,,,,,,,,,,,,,,,,,,,,,,,,,,,,,,,,,,,,,,,731.3548909999954,None,,,,,"[0.6596015140415424, 0.6596015140415424, 0.6596015140415424, 0.6596015140415424]","[2195.1717070420655, 2105.1371585738157, 1417.56114180108, 849.6664728827483]",None,"[10.268044040814377, 10.268044040814377, 10.533624096537752, 15.434644929157692]",True,732.3498722999939,735.3442776000011,735.3442776000011,736.5694988000032,None,1,,3.658481220016256,4.6811838200083,None,1,None,1,,0,,,,,quicsb,001,fr,0,0,2022-07-21_15h22.52.247,Cluster,2022.1.1,None,
,,,,4,0,4,0,11,0,11,0,,,both,,,,,,,,,,,,,,,,,,,,,,,,,,,,,,,,,,,,,,,,,,,,,,,,,,,,,,,,,,,,,,,,,,,,,,,,,,,,,,,,,,,,,,,,,,,,,,,,,,,,,,,,,,,,,,,,,,,,737.0850673999958,None,1658.237618661546,3.609120762538604,8.996991893462884e-05,1,"[0.6107657149578358, 0.6107657149578358, 0.6107657149578358, 0.6107657149578358]","[658.0720350691454, 829.1188093307734, 1044.624240739615, 1316.1440701382903]",Major_3rd,"[13.903905323176307, 15.606086819012052, 14.0, 11.205396031295534]",False,738.0847514999914,740.9489646000002,740.9489646000002,742.1852983999997,['space'],1,[0.2824469999904977],3.456165020004846,4.476877920009429,None,1,None,1,,,,,,,quicsb,001,fr,0,0,2022-07-21_15h22.52.247,Cluster,2022.1.1,None,
,,,,4,0,4,0,12,0,12,0,,,none,,,,,,,,,,,,,,,,,,,,,,,,,,,,,,,,,,,,,,,,,,,,,,,,,,,,,,,,,,,,,,,,,,,,,,,,,,,,,,,,,,,,,,,,,,,,,,,,,,,,,,,,,,,,,,,,,,,,742.623854999998,None,1071.7734625362941,7.0,0.00010534195118358306,1,"[0.41752201055769594, 0.5408553767303528, 0.7217719792572682, 0.6852058696236274]","[2168.4002216155777, 7491.794457659989, 588.5953284930424, 845.6529901657484]",None,"[10.268044040814377, 1.8893666602066688, 12.0, 15.434644929157692]",False,743.6290411999944,746.3321406000032,746.3321406000032,747.5523913999932,['space'],1,[0.18902380000508856],3.394838609994622,4.429869109997526,None,1,None,1,,,,,,,quicsb,001,fr,0,0,2022-07-21_15h22.52.247,Cluster,2022.1.1,None,
,,,,4,0,4,0,13,0,13,0,,,none,,,,,,,,,,,,,,,,,,,,,,,,,,,,,,,,,,,,,,,,,,,,,,,,,,,,,,,,,,,,,,,,,,,,,,,,,,,,,,,,,,,,,,,,,,,,,,,,,,,,,,,,,,,,,,,,,,,,748.1024999999936,None,227.2481770637161,1.6243872183379746,0.00025566645221168497,1,"[0.4392621797527587, 0.6937636973915058, 0.6886885278636399, 0.7167538126406141]","[335.9528267600342, 735.6872665555178, 284.39033130790347, 228.34537761037564]",None,"[6.486254574389276, 15.0, 6.893847117749152, 7.624387218337975]",False,749.121926199994,751.9618182999984,751.9618182999984,753.1848700999981,['space'],1,[0.22351360000902787],3.563391320014489,4.586933020007564,None,1,None,1,,,,,,,quicsb,001,fr,0,0,2022-07-21_15h22.52.247,Cluster,2022.1.1,None,
,,,,4,0,4,0,14,0,14,0,,,both,,,,,,,,,,,,,,,,,,,,,,,,,,,,,,,,,,,,,,,,,,,,,,,,,,,,,,,,,,,,,,,,,,,,,,,,,,,,,,,,,,,,,,,,,,,,,,,,,,,,,,,,,,,,,,,,,,,,753.769673799994,None,3031.4331330207992,-3.0,4.091827205982744e-05,0,"[0.49767190474238415, 0.49767190474238415, 0.49767190474238415, 0.49767190474238415]","[601.5125180410589, 901.2504626108312, 1350.3499461681913, 2023.238880603847]",Perfect_5th,"[12.0, 15.0, 11.0, 9.801872696302679]",False,754.8402267999918,757.3639115999977,757.3639115999977,758.5688653999969,None,0,,3.01249369001016,4.021302390014171,None,1,None,1,,,,,,,quicsb,001,fr,0,0,2022-07-21_15h22.52.247,Cluster,2022.1.1,None,
,,,,4,0,4,0,15,0,15,0,,,frequency,,,,,,,,,,,,,,,,,,,,,,,,,,,,,,,,,,,,,,,,,,,,,,,,,,,,,,,,,,,,,,,,,,,,,,,,,,,,,,,,,,,,,,,,,,,,,,,,,,,,,,,,,,,,,,,,,,,,758.9080783999962,None,,,,,"[0.5926977925041057, 0.48194073909155594, 0.7434211540070089, 0.5761532831019782]","[1575.6017877538507, 2360.7353089311455, 3537.106420004194, 5299.671580758228]",Perfect_5th,"[9.609120762538604, 11.0, 9.0, 1.7354919848833203]",True,759.9073908999999,762.7681194000033,762.7681194000033,763.9707332999969,None,1,,3.407448520010803,4.434180220006965,None,1,None,1,,0,,,,,quicsb,001,fr,0,0,2022-07-21_15h22.52.247,Cluster,2022.1.1,None,
,,,,4,0,4,0,16,0,16,0,,,frequency,,,,,,,,,,,,,,,,,,,,,,,,,,,,,,,,,,,,,,,,,,,,,,,,,,,,,,,,,,,,,,,,,,,,,,,,,,,,,,,,,,,,,,,,,,,,,,,,,,,,,,,,,,,,,,,,,,,,764.3933003999991,None,372.89744516082027,0.34019160212531785,8.69293016088765e-05,1,"[0.7918115550389261, 0.4774162205513224, 0.4092555188624037, 0.7821252570917226]","[591.9377967245401, 527.3566243207096, 469.8213406101366, 418.5632301045464]",Tone,"[12.0, 9.90502565043273, 7.639612854523006, 6.505598694224707]",False,765.3945534999948,768.087804099996,768.087804099996,769.3158395999926,['space'],1,[0.3169849999976577],3.4711481200065464,4.483237120002741,None,1,None,1,,,,,,,quicsb,001,fr,0,0,2022-07-21_15h22.52.247,Cluster,2022.1.1,None,
,,,,4,0,4,0,17,0,17,0,,,both,,,,,,,,,,,,,,,,,,,,,,,,,,,,,,,,,,,,,,,,,,,,,,,,,,,,,,,,,,,,,,,,,,,,,,,,,,,,,,,,,,,,,,,,,,,,,,,,,,,,,,,,,,,,,,,,,,,,769.9498631000024,None,177.06511135258083,2.4526169418701524,0.00046282802957438654,1,"[0.7848681790931477, 0.7848681790931477, 0.7848681790931477, 0.7848681790931477]","[281.0733440279532, 250.40788189792212, 223.0880609950963, 198.7488675729451]",Tone,"[7.0, 7.37405094293265, 7.880489113763942, 8.12511642922717]",False,770.9398992999922,774.3230159999948,774.3230159999948,775.5495223000034,['space'],1,[0.26055340000311844],4.165458920004312,5.199435920003452,None,1,None,1,,,,,,,quicsb,001,fr,0,0,2022-07-21_15h22.52.247,Cluster,2022.1.1,None,
,,,,4,0,4,0,18,0,18,0,,,none,,,,,,,,,,,,,,,,,,,,,,,,,,,,,,,,,,,,,,,,,,,,,,,,,,,,,,,,,,,,,,,,,,,,,,,,,,,,,,,,,,,,,,,,,,,,,,,,,,,,,,,,,,,,,,,,,,,,776.2056188999995,None,164.93848884661182,-5.0,0.00022107631519430862,1,"[0.44518797193005333, 0.6199370076884498, 0.7953442363372688, 0.788476279889192]","[141.3326533336077, 5060.533536263492, 207.30952809185246, 214.49452567407897]",None,"[8.383502550706392, 2.0, 8.0, 7.880489113763942]",False,777.2303080999991,780.1079207000002,780.1079207000002,781.325682499999,['space'],1,[0.26222009999037255],3.6973300100362394,4.728320210022503,None,1,None,1,,,,,,,quicsb,001,fr,0,0,2022-07-21_15h22.52.247,Cluster,2022.1.1,None,
,,,,4,0,4,0,19,0,19,0,,,time,,,,,,,,,,,,,,,,,,,,,,,,,,,,,,,,,,,,,,,,,,,,,,,,,,,,,,,,,,,,,,,,,,,,,,,,,,,,,,,,,,,,,,,,,,,,,,,,,,,,,,,,,,,,,,,,,,,,781.9985657999932,None,3249.0095854249403,-3.0,5.0092288148172966e-05,0,"[0.5757691265384928, 0.5757691265384928, 0.5757691265384928, 0.5757691265384928]","[6504.912766969864, 282.9130164995218, 1415.7269247032923, 1350.419132033573]",None,"[1.0, 6.893847117749152, 10.533624096537752, 11.0]",False,783.0304432999983,785.7942982999957,785.7942982999957,786.9980204000021,None,0,,3.333288210022147,4.3512857100286055,None,1,None,1,,,,,,,quicsb,001,fr,0,0,2022-07-21_15h22.52.247,Cluster,2022.1.1,None,
,,,,5,0,5,0,0,0,0,0,,,frequency,,,,,,,,,,,,,,,,,,,,,,,,,,,,,,,,,,,,,,,,,,,,,,,,,,,,,,,,,,,,,,,,,,,,,,,,,,,,,,,,,,,,,,,,,,,,,,,,,,,,,,,,,,,,,,,,,,,,793.0053762000025,None,,,,,"[0.6145927868998695, 0.7752488484818941, 0.5114028018509535, 0.5167086564948757]","[1024.1643815395457, 1534.5127407457312, 2299.1712990167616, 3444.864628268567]",Perfect_5th,"[14.0, 9.98733479588627, 10.792271583857126, 9.346823562676974]",True,793.9924285000016,796.9150857999921,796.9150857999921,798.1407199999958,None,1,,3.4456492200115463,4.470279519999167,None,1,None,1,,0,,,,,quicsb,001,fr,0,0,2022-07-21_15h22.52.247,Cluster,2022.1.1,None,
,,,,5,0,5,0,1,0,1,0,,,time,,,,,,,,,,,,,,,,,,,,,,,,,,,,,,,,,,,,,,,,,,,,,,,,,,,,,,,,,,,,,,,,,,,,,,,,,,,,,,,,,,,,,,,,,,,,,,,,,,,,,,,,,,,,,,,,,,,,798.5237937999918,None,3226.1785648087466,4.427097004279265,0.00011712748755673551,1,"[0.7986449894980043, 0.7986449894980043, 0.7986449894980043, 0.7986449894980043]","[200.74004839432206, 1378.219601878906, 3906.1273797519148, 1333.9043671534678]",None,"[8.12511642922717, 11.0, 7.0, 11.0]",False,799.5298399000021,802.9464810999925,802.9464810999925,804.1803680000012,['space'],1,[0.1533740000013495],4.203311320001376,5.233972020010697,None,1,None,1,,,,,,,quicsb,001,fr,0,0,2022-07-21_15h22.52.247,Cluster,2022.1.1,None,
,,,,5,0,5,0,2,0,2,0,,,both,,,,,,,,,,,,,,,,,,,,,,,,,,,,,,,,,,,,,,,,,,,,,,,,,,,,,,,,,,,,,,,,,,,,,,,,,,,,,,,,,,,,,,,,,,,,,,,,,,,,,,,,,,,,,,,,,,,,804.8269189999992,None,125.0,1.0,0.0008109050486794653,1,"[0.7292774500851448, 0.7292774500851448, 0.7292774500851448, 0.7292774500851448]","[629.9605249474366, 420.4482076268573, 280.6155120773433, 187.2883846095852]",Perfect_5th,"[13.0, 6.505598694224707, 7.0, 8.322220697402269]",False,805.8454102999967,809.0690971000004,809.0690971000004,810.2850870999973,['space'],1,[0.2277347000053851],3.963674910017289,4.977968710009009,None,1,None,1,,,,,,,quicsb,001,fr,0,0,2022-07-21_15h22.52.247,Cluster,2022.1.1,None,
,,,,5,0,5,0,3,0,3,0,,,none,,,,,,,,,,,,,,,,,,,,,,,,,,,,,,,,,,,,,,,,,,,,,,,,,,,,,,,,,,,,,,,,,,,,,,,,,,,,,,,,,,,,,,,,,,,,,,,,,,,,,,,,,,,,,,,,,,,,810.8708396000002,None,1815.278749315377,3.5129794549261653,9.96050774843061e-05,1,"[0.47359095813576246, 0.642638447694734, 0.5263771600857606, 0.6980407530188473]","[4930.189815801713, 3535.426159701011, 498.9733832284103, 174.53392328061477]",None,"[2.610680730654525, 9.0, 8.651526734635146, 8.452616941870152]",False,811.8703047000017,814.5307887999952,814.5307887999952,815.7594689999969,['space'],1,[0.337780500005465],3.3760895200102823,4.395764920016518,None,1,None,1,,,,,,,quicsb,001,fr,0,0,2022-07-21_15h22.52.247,Cluster,2022.1.1,None,
,,,,5,0,5,0,4,0,4,0,,,frequency,,,,,,,,,,,,,,,,,,,,,,,,,,,,,,,,,,,,,,,,,,,,,,,,,,,,,,,,,,,,,,,,,,,,,,,,,,,,,,,,,,,,,,,,,,,,,,,,,,,,,,,,,,,,,,,,,,,,816.3269999999902,None,,,,,"[0.5599249567778618, 0.5809955457483427, 0.4053067997212519, 0.5231284309398734]","[799.3334713726537, 533.4910871801502, 356.0625825062824, 237.6432628540459]",Perfect_5th,"[15.606086819012052, 9.90502565043273, 6.356615356648497, 7.624387218337975]",True,817.3401003999898,819.9304899999988,819.9304899999988,821.1333984999947,None,1,,3.0840427200164413,4.11609452002449,None,1,None,1,,0,,,,,quicsb,001,fr,0,0,2022-07-21_15h22.52.247,Cluster,2022.1.1,None,
,,,,5,0,5,0,5,0,5,0,,,frequency,,,,,,,,,,,,,,,,,,,,,,,,,,,,,,,,,,,,,,,,,,,,,,,,,,,,,,,,,,,,,,,,,,,,,,,,,,,,,,,,,,,,,,,,,,,,,,,,,,,,,,,,,,,,,,,,,,,,821.5130168000032,None,659.7539553864473,6.0,9.688084955247381e-05,1,"[0.4374376348688091, 0.48057604798540776, 0.7229279737723182, 0.5320875258912398]","[415.6189480713939, 466.51649576840373, 523.6470614103134, 587.7739531418044]",Tone,"[6.505598694224707, 7.639612854523006, 9.90502565043273, 12.0]",False,822.5378098999936,825.2251796999917,825.2251796999917,826.4506473999936,['space'],1,[0.2535708000068553],3.1978400100197177,4.230500110017601,None,1,None,1,,,,,,,quicsb,001,fr,0,0,2022-07-21_15h22.52.247,Cluster,2022.1.1,None,
,,,,5,0,5,0,6,0,6,0,,,frequency,,,,,,,,,,,,,,,,,,,,,,,,,,,,,,,,,,,,,,,,,,,,,,,,,,,,,,,,,,,,,,,,,,,,,,,,,,,,,,,,,,,,,,,,,,,,,,,,,,,,,,,,,,,,,,,,,,,,826.8357662999915,None,163.08393222044816,2.50402309052194,0.0005335085536065907,1,"[0.41482798813097643, 0.5545222171323144, 0.5102430765239789, 0.7675696402459066]","[410.94575820834285, 326.1678644408964, 258.87960556585, 205.4728791041714]",Major_3rd,"[6.505598694224707, 6.486254574389276, 7.37405094293265, 8.12511642922717]",False,827.8407550999982,830.3529724999971,830.3529724999971,831.5849050999968,['space'],1,[0.28502219999791123],3.2663784199976362,4.299118020004244,None,1,None,1,,,,,,,quicsb,001,fr,0,0,2022-07-21_15h22.52.247,Cluster,2022.1.1,None,
,,,,5,0,5,0,7,0,7,0,,,time,,,,,,,,,,,,,,,,,,,,,,,,,,,,,,,,,,,,,,,,,,,,,,,,,,,,,,,,,,,,,,,,,,,,,,,,,,,,,,,,,,,,,,,,,,,,,,,,,,,,,,,,,,,,,,,,,,,,832.2162345999968,None,125.0,-5.0,0.00040641525808204974,0,"[0.5339340416746209, 0.5339340416746209, 0.5339340416746209, 0.5339340416746209]","[481.5773906244347, 501.6486595754073, 4303.583622397307, 2554.056464932352]",None,"[8.0, 8.651526734635146, 5.0, 11.557044354572005]",False,833.2435376999929,835.8888428999926,835.8888428999926,837.128710799996,None,0,,3.1599110099923564,4.18250600999454,None,1,None,1,,,,,,,quicsb,001,fr,0,0,2022-07-21_15h22.52.247,Cluster,2022.1.1,None,
,,,,5,0,5,0,8,0,8,0,,,both,,,,,,,,,,,,,,,,,,,,,,,,,,,,,,,,,,,,,,,,,,,,,,,,,,,,,,,,,,,,,,,,,,,,,,,,,,,,,,,,,,,,,,,,,,,,,,,,,,,,,,,,,,,,,,,,,,,,837.484053799999,None,,,,,"[0.7294087445243508, 0.7294087445243508, 0.7294087445243508, 0.7294087445243508]","[1467.268119875792, 2198.418207685442, 3293.9055585096485, 4935.282008878445]",Perfect_5th,"[10.0, 10.268044040814377, 10.0, 2.610680730654525]",True,838.5028479999892,841.7338774999953,841.7338774999953,842.9685985999968,None,1,,3.929304620003677,4.955271219994756,None,1,None,1,,0,,,,,quicsb,001,fr,0,0,2022-07-21_15h22.52.247,Cluster,2022.1.1,None,
,,,,5,0,5,0,9,0,9,0,,,time,,,,,,,,,,,,,,,,,,,,,,,,,,,,,,,,,,,,,,,,,,,,,,,,,,,,,,,,,,,,,,,,,,,,,,,,,,,,,,,,,,,,,,,,,,,,,,,,,,,,,,,,,,,,,,,,,,,,843.5224706000008,None,342.34264260111206,0.356615356648497,9.535858248948911e-05,1,"[0.788234011514781, 0.788234011514781, 0.788234011514781, 0.788234011514781]","[851.9436258709342, 341.0880698822142, 1382.2424597884308, 5567.578242244712]",None,"[15.434644929157692, 6.486254574389276, 10.533624096537752, 1.1784144081800818]",False,844.5283981999964,847.9395676999993,847.9395676999993,849.1445886000001,['space'],1,[0.32885750000423286],4.166712420003023,5.203123719998985,None,1,None,1,,,,,,,quicsb,001,fr,0,0,2022-07-21_15h22.52.247,Cluster,2022.1.1,None,
,,,,5,0,5,0,10,0,10,0,,,none,,,,,,,,,,,,,,,,,,,,,,,,,,,,,,,,,,,,,,,,,,,,,,,,,,,,,,,,,,,,,,,,,,,,,,,,,,,,,,,,,,,,,,,,,,,,,,,,,,,,,,,,,,,,,,,,,,,,849.8021634000033,None,125.0,-6.0,0.00036221798003749513,0,"[0.4924483134831903, 0.7709896618971396, 0.6344758483607912, 0.4701331700599695]","[134.22978514688688, 3271.374866526032, 252.2521756694379, 1242.9180564594858]",None,"[8.250125814639645, 10.427097004279265, 7.37405094293265, 11.949863232820327]",False,850.8245708000031,853.7406750999944,853.7406750999944,854.9445987999934,None,0,,3.3868832099979045,4.415653010000824,None,1,None,1,,,,,,,quicsb,001,fr,0,0,2022-07-21_15h22.52.247,Cluster,2022.1.1,None,
,,,,5,0,5,0,11,0,11,0,,,both,,,,,,,,,,,,,,,,,,,,,,,,,,,,,,,,,,,,,,,,,,,,,,,,,,,,,,,,,,,,,,,,,,,,,,,,,,,,,,,,,,,,,,,,,,,,,,,,,,,,,,,,,,,,,,,,,,,,855.3043023999926,None,2321.5316888392936,4.792271583857125,0.00014226747891758708,1,"[0.6724222890541676, 0.6724222890541676, 0.6724222890541676, 0.6724222890541676]","[3685.201845041006, 3283.1415998354455, 2924.946642766621, 2605.8312146696717]",Tone,"[8.018639609504586, 10.427097004279265, 11.547737168085696, 11.557044354572005]",False,856.3089846999937,859.3472885999945,859.3472885999945,860.5512338999979,['space'],1,[0.3067337999964366],3.696993620003923,4.70183572001406,None,1,None,1,,,,,,,quicsb,001,fr,0,0,2022-07-21_15h22.52.247,Cluster,2022.1.1,None,
,,,,5,0,5,0,12,0,12,0,,,time,,,,,,,,,,,,,,,,,,,,,,,,,,,,,,,,,,,,,,,,,,,,,,,,,,,,,,,,,,,,,,,,,,,,,,,,,,,,,,,,,,,,,,,,,,,,,,,,,,,,,,,,,,,,,,,,,,,,861.0773673999938,None,466.5164957684038,-3.0,5.1790195950526384e-05,0,"[0.5858660485803115, 0.5858660485803115, 0.5858660485803115, 0.5858660485803115]","[1350.7122523401208, 132.97116476918077, 379.963451607883, 1039.8554982494177]",None,"[11.0, 8.250125814639645, 6.3401916021253175, 14.0]",False,862.1036556000035,864.8903914999973,864.8903914999973,866.1241047999938,None,0,,3.385749310007668,4.417557010005112,None,1,None,1,,,,,,,quicsb,001,fr,0,0,2022-07-21_15h22.52.247,Cluster,2022.1.1,None,
,,,,5,0,5,0,13,0,13,0,,,both,,,,,,,,,,,,,,,,,,,,,,,,,,,,,,,,,,,,,,,,,,,,,,,,,,,,,,,,,,,,,,,,,,,,,,,,,,,,,,,,,,,,,,,,,,,,,,,,,,,,,,,,,,,,,,,,,,,,866.5799734000029,None,,,,,"[0.5794303460565594, 0.5794303460565594, 0.5794303460565594, 0.5794303460565594]","[4521.78784712047, 5075.535248899273, 5697.095691745902, 6394.773699571609]",Tone,"[4.0, 2.0, 1.1784144081800818, 0.9976980242143076]",True,867.584632500002,870.3643385999894,870.3643385999894,871.5927003999968,None,1,,3.3349379200080875,4.367612220012234,None,1,None,1,,0,,,,,quicsb,001,fr,0,0,2022-07-21_15h22.52.247,Cluster,2022.1.1,None,
,,,,5,0,5,0,14,0,14,0,,,none,,,,,,,,,,,,,,,,,,,,,,,,,,,,,,,,,,,,,,,,,,,,,,,,,,,,,,,,,,,,,,,,,,,,,,,,,,,,,,,,,,,,,,,,,,,,,,,,,,,,,,,,,,,,,,,,,,,,872.0136086999992,None,2020.4809359503,3.801872696302679,0.00011659804138800363,1,"[0.43111921574761236, 0.6727630139762785, 0.4640882536349769, 0.6463471848150915]","[846.236806615258, 1116.371257170196, 1656.5021922104067, 520.9387768053228]",None,"[15.434644929157692, 13.0, 9.609120762538604, 9.0]",False,873.0143346999976,875.5964577999985,875.5964577999985,876.8322561999958,['space'],1,[0.3301569999894127],3.240870720008388,4.281201720004901,None,1,None,1,,,,,,,quicsb,001,fr,0,0,2022-07-21_15h22.52.247,Cluster,2022.1.1,None,
,,,,5,0,5,0,15,0,15,0,,,frequency,,,,,,,,,,,,,,,,,,,,,,,,,,,,,,,,,,,,,,,,,,,,,,,,,,,,,,,,,,,,,,,,,,,,,,,,,,,,,,,,,,,,,,,,,,,,,,,,,,,,,,,,,,,,,,,,,,,,877.3619309999922,None,176.7766952966369,-8.0,0.00013934586077992474,0,"[0.44281488612209186, 0.6029929245027195, 0.6083887535755892, 0.7996341684678427]","[890.8987181403394, 594.6035575013606, 396.8502629920499, 264.86577358982385]",Perfect_5th,"[15.434644929157692, 12.0, 6.505598694224707, 7.131455333704845]",False,878.3815390999953,881.0746210999932,881.0746210999932,882.3057533999963,None,0,,3.4932499099959387,4.525241709998227,None,1,None,1,,,,,,,quicsb,001,fr,0,0,2022-07-21_15h22.52.247,Cluster,2022.1.1,None,
,,,,5,0,5,0,16,0,16,0,,,time,,,,,,,,,,,,,,,,,,,,,,,,,,,,,,,,,,,,,,,,,,,,,,,,,,,,,,,,,,,,,,,,,,,,,,,,,,,,,,,,,,,,,,,,,,,,,,,,,,,,,,,,,,,,,,,,,,,,883.0154916999891,None,2494.339747751465,5.272511997982248,0.00015738405894990122,1,"[0.5867988977089786, 0.5867988977089786, 0.5867988977089786, 0.5867988977089786]","[312.6538935125345, 1350.2530041647067, 4143.964984197029, 1594.6386505238172]",None,"[6.6749930698778375, 11.0, 6.0, 9.609120762538604]",False,883.9888044999971,886.7781489999907,886.7781489999907,887.9995571000036,['space'],1,[0.2704288000095403],3.3805495200213045,4.415454820016748,None,1,None,1,,,,,,,quicsb,001,fr,0,0,2022-07-21_15h22.52.247,Cluster,2022.1.1,None,
,,,,5,0,5,0,17,0,17,0,,,time,,,,,,,,,,,,,,,,,,,,,,,,,,,,,,,,,,,,,,,,,,,,,,,,,,,,,,,,,,,,,,,,,,,,,,,,,,,,,,,,,,,,,,,,,,,,,,,,,,,,,,,,,,,,,,,,,,,,888.4702115999971,None,,,,,"[0.7125002692150832, 0.7125002692150832, 0.7125002692150832, 0.7125002692150832]","[1390.4604410119139, 860.4015122692888, 579.9305885777559, 1307.573873729322]",None,"[10.533624096537752, 15.434644929157692, 11.299830270209807, 11.205396031295534]",True,889.4748091999936,892.652144599997,892.652144599997,893.883368499999,None,1,,3.8677940200141165,4.8990226200112374,None,1,None,1,,0,,,,,quicsb,001,fr,0,0,2022-07-21_15h22.52.247,Cluster,2022.1.1,None,
,,,,5,0,5,0,18,0,18,0,,,both,,,,,,,,,,,,,,,,,,,,,,,,,,,,,,,,,,,,,,,,,,,,,,,,,,,,,,,,,,,,,,,,,,,,,,,,,,,,,,,,,,,,,,,,,,,,,,,,,,,,,,,,,,,,,,,,,,,,894.4448446000024,None,812.2523963562351,6.0,7.724919469550575e-05,1,"[0.48940413885166406, 0.48940413885166406, 0.48940413885166406, 0.48940413885166406]","[161.17128855494732, 241.48408223121126, 361.8173093600943, 542.1134351507089]",Perfect_5th,"[8.50402309052194, 7.624387218337975, 6.356615356648497, 10.0]",False,895.4659698999894,897.9574790999905,897.9574790999905,899.1845803000033,['space'],1,[0.39945260000240523],2.9936973100120667,4.00804611001513,None,1,None,1,,,,,,,quicsb,001,fr,0,0,2022-07-21_15h22.52.247,Cluster,2022.1.1,None,
,,,,5,0,5,0,19,0,19,0,,,frequency,,,,,,,,,,,,,,,,,,,,,,,,,,,,,,,,,,,,,,,,,,,,,,,,,,,,,,,,,,,,,,,,,,,,,,,,,,,,,,,,,,,,,,,,,,,,,,,,,,,,,,,,,,,,,,,,,,,,899.5255402999901,None,800.0742260406377,9.606086819012052,0.00011595733457704606,1,"[0.7673443318258063, 0.47569422252304183, 0.5575147603120962, 0.6946607095936457]","[504.01517943347403, 565.7379106859134, 635.0193340347755, 712.7851023967281]",Tone,"[8.651526734635146, 11.0, 13.0, 14.84535255238231]",False,900.529557899994,903.3603358999972,903.3603358999972,904.5960473000014,['space'],1,[0.2923445000051288],3.5223335200134898,4.544349520016112,None,1,None,1,,,,,,,quicsb,001,fr,0,0,2022-07-21_15h22.52.247,Cluster,2022.1.1,None,
,,,,6,0,6,0,0,0,0,0,,,frequency,,,,,,,,,,,,,,,,,,,,,,,,,,,,,,,,,,,,,,,,,,,,,,,,,,,,,,,,,,,,,,,,,,,,,,,,,,,,,,,,,,,,,,,,,,,,,,,,,,,,,,,,,,,,,,,,,,,,907.389597699992,None,2462.2888266898335,1.0,9.543828998156852e-05,0,"[0.580907699397748, 0.6103027687197461, 0.42178253539374405, 0.5341756792307788]","[6204.579047334941, 4924.577653379667, 3908.6398737369855, 3102.2895236674703]",Major_3rd,"[0.9309278551451889, 2.610680730654525, 7.0, 11.0]",False,908.5330912999925,911.1799565999972,911.1799565999972,912.402459799996,None,0,,3.173583170006168,4.1788995700044325,None,1,None,1,,,,,,,quicsb,001,fr,0,0,2022-07-21_15h22.52.247,Cluster,2022.1.1,None,
,,,,6,0,6,0,1,0,1,0,,,none,,,,,,,,,,,,,,,,,,,,,,,,,,,,,,,,,,,,,,,,,,,,,,,,,,,,,,,,,,,,,,,,,,,,,,,,,,,,,,,,,,,,,,,,,,,,,,,,,,,,,,,,,,,,,,,,,,,,912.7732894999936,None,4000.0,-5.0,4.720304381429618e-05,0,"[0.7443443921203837, 0.5551568538755773, 0.6530007117472272, 0.5484801378179198]","[2278.258211137203, 746.3150161930369, 676.9347091441656, 5044.956515637356]",None,"[10.792271583857126, 15.424494065508316, 14.0, 2.610680730654525]",False,913.7826655999961,916.7676588000031,916.7676588000031,917.9879772999993,None,0,,3.5296450099995127,4.5650175100017805,None,1,None,1,,,,,,,quicsb,001,fr,0,0,2022-07-21_15h22.52.247,Cluster,2022.1.1,None,
,,,,6,0,6,0,2,0,2,0,,,none,,,,,,,,,,,,,,,,,,,,,,,,,,,,,,,,,,,,,,,,,,,,,,,,,,,,,,,,,,,,,,,,,,,,,,,,,,,,,,,,,,,,,,,,,,,,,,,,,,,,,,,,,,,,,,,,,,,,918.393731899996,None,,,,,"[0.555440144509785, 0.591181338726877, 0.7044932046227664, 0.7494378619527255]","[1560.3198307598327, 178.43877157902935, 7748.044967663145, 323.1707307887463]",None,"[9.98733479588627, 8.452616941870152, 2.0, 6.486254574389276]",True,919.4062938999996,922.2783829999971,922.2783829999971,923.4935791000025,None,1,,3.6097303200222086,4.626635920008994,None,1,None,1,,0,,,,,quicsb,001,fr,0,0,2022-07-21_15h22.52.247,Cluster,2022.1.1,None,
