frequencies,training_trials.thisRepN,training_trials.thisTrialN,training_trials.thisN,training_trials.thisIndex,frequencies.thisRepN,frequencies.thisTrialN,frequencies.thisN,frequencies.thisIndex,trials.thisRepN,trials.thisTrialN,trials.thisN,trials.thisIndex,tFrequency,tLevel,tCorrect,Tprobe.started,Tprobe.stopped,tTriangle_cue.started,tTriangle_cue.stopped,Tfeedback.keys,Tfeedback.corr,Tfeedback.rt,Tfeedback.started,Tfeedback.stopped,reversals_nTrials.routineEndVal,track_dir.routineEndVal,step_up.routineEndVal,Correct,Frequency,Level,Psychopy_Level,Direction,Reversals,Track_dir,Step,probe.started,probe.stopped,cross_cue.started,cross_cue.stopped,circle_cue.started,circle_cue.stopped,triangle_cue.started,triangle_cue.stopped,feedback.keys,feedback.corr,feedback.rt,feedback.started,feedback.stopped,memo.started,memo.stopped,key_resp.keys,key_resp.rt,key_resp.started,key_resp.stopped,text.started,text.stopped,participant,session,skip_training,language (english or french),date,expName,psychopyVersion,frameRate,
450,0,0,0,1,,,,,,,,,450,30,right,57.17163180997595,None,57.106302900006995,57.428822099929675,right,1,5.038486199919134,54.67436489998363,None,,,,,,,,,,,,,,,,,,,,,,,,,,,,,,,,,erfnpg,001,0,fr,2022-05-10_14h32.08.030,3-AFC_adaptive_staircase_mess,2022.1.1,35.54605131782861,
200,0,1,1,0,,,,,,,,,200,30,left,63.99807190983556,64.21348259993829,65.94484299980104,66.2464830998797,left,1,3.0926451000850648,63.53260639985092,None,,,,,,,,,,,,,,,,,,,,,,,,,,,,,,,,,erfnpg,001,0,fr,2022-05-10_14h32.08.030,3-AFC_adaptive_staircase_mess,2022.1.1,35.54605131782861,
850,0,2,2,2,,,,,,,,,850,30,up,70.62768071000464,None,None,None,up,1,2.083438199944794,69.16642689984292,None,,,,,,,,,,,,,,,,,,,,,,,,,,,,,,,,,erfnpg,001,0,fr,2022-05-10_14h32.08.030,3-AFC_adaptive_staircase_mess,2022.1.1,35.54605131782861,
1300,0,3,3,3,,,,,,,,,1300,30,left,76.63994630980305,None,None,None,left,1,1.1025132001377642,76.17917050002143,None,,,,,,,,,,,,,,,,,,,,,,,,,,,,,,,,,erfnpg,001,0,fr,2022-05-10_14h32.08.030,3-AFC_adaptive_staircase_mess,2022.1.1,35.54605131782861,
5000,0,4,4,4,,,,,,,,,5000,30,up,85.04567471002228,85.26472699991427,None,None,up,1,1.8591211999300867,83.5816442000214,None,,,,,,,,,,,,,,,,,,,,,,,,,,,,,,,,,erfnpg,001,0,fr,2022-05-10_14h32.08.030,3-AFC_adaptive_staircase_mess,2022.1.1,35.54605131782861,
,,,,,0,0,0,0,0,0,0,0,,,,,,,,,,,,,[],[],10,up,1000,30,0.0013930605843148849,0,0,-1,10,103.92802941002883,None,102.87714879983105,103.19951609987766,103.87190179992467,104.17567089991644,None,None,up,1,1.5472688002046198,102.93468139995821,None,None,None,,,,,,,erfnpg,001,0,fr,2022-05-10_14h32.08.030,3-AFC_adaptive_staircase_mess,2022.1.1,35.54605131782861,
,,,,,0,0,0,0,1,0,1,0,,,,,,,,,,,,,,,,right,1000,30,0.0013930605843148849,0,0,-1,10,108.03193161003291,108.24806279991753,105.98216150002554,106.30765269999392,106.97961679985747,107.30223020003177,107.9712149000261,108.2795666998718,right,1,2.331287099979818,106.03810699982569,None,None,None,,,,,,,erfnpg,001,0,fr,2022-05-10_14h32.08.030,3-AFC_adaptive_staircase_mess,2022.1.1,35.54605131782861,
,,,,,0,0,0,0,2,0,2,0,,,,,,,,,,,,,,,,left,1000,10,0.00013930605843148847,-1,0,-1,-10,109.92031640997156,110.13594639999792,109.86085559986532,110.16295079980046,None,None,None,None,left,1,0.6093401999678463,109.91981470002793,None,None,None,,,,,,,erfnpg,001,0,fr,2022-05-10_14h32.08.030,3-AFC_adaptive_staircase_mess,2022.1.1,35.54605131782861,
,,,,,0,0,0,0,3,0,3,0,,,,,,,,,,,,,,,,up,1000,10,0.00013930605843148847,-1,0,-1,-10,113.05931510981172,113.27658739988692,112.0091852999758,112.31394769996405,113.0311484998092,113.33171529998071,None,None,up,1,1.5135635000187904,112.07115009985864,None,None,None,,,,,,,erfnpg,001,0,fr,2022-05-10_14h32.08.030,3-AFC_adaptive_staircase_mess,2022.1.1,35.54605131782861,
,,,,,0,0,0,0,4,0,4,0,,,,,,,,,,,,,,,,up,1000,0,4.405244365040069e-05,-1,0,-1,-10,116.10856310995295,116.32939939992502,115.0576777998358,115.38210539985448,116.04711649985984,116.35961619997397,None,None,up,1,1.637018300127238,115.11642459989525,None,None,None,,,,,,,erfnpg,001,0,fr,2022-05-10_14h32.08.030,3-AFC_adaptive_staircase_mess,2022.1.1,35.54605131782861,
,,,,,0,0,0,0,5,0,5,0,,,,,,,,,,,,,,,,right,1000,0,4.405244365040069e-05,-1,0,-1,-10,120.32136360993609,None,118.26236429996789,118.58970699994825,119.25998889980838,119.5899620000273,120.26427589985542,None,up,0,2.097535700071603,118.32110139983706,None,None,None,,,,,,,erfnpg,001,0,fr,2022-05-10_14h32.08.030,3-AFC_adaptive_staircase_mess,2022.1.1,35.54605131782861,
,,,,,0,0,0,0,6,0,6,0,,,,,,,,,,,,,,,,left,1000,5,7.833755350540742e-05,1,1,1,5,121.97574231000617,122.19992929999717,121.91797979990952,122.23072219989263,None,None,None,None,left,1,0.7787250999826938,121.9747226999607,None,None,None,,,,,,,erfnpg,001,0,fr,2022-05-10_14h32.08.030,3-AFC_adaptive_staircase_mess,2022.1.1,35.54605131782861,
,,,,,0,0,0,0,7,0,7,0,,,,,,,,,,,,,,,,left,1000,5,7.833755350540742e-05,1,1,1,5,124.28618990997784,None,124.22478439984843,124.55600889981724,None,None,None,None,left,1,0.5573424999602139,124.29157479992136,None,None,None,,,,,,,erfnpg,001,0,fr,2022-05-10_14h32.08.030,3-AFC_adaptive_staircase_mess,2022.1.1,35.54605131782861,
,,,,,0,0,0,0,8,0,8,0,,,,,,,,,,,,,,,,left,1000,-5,2.4772509540239506e-05,-1,2,-1,-5.0,126.4027731099166,126.62258939980529,126.34267889987677,126.65073529980145,None,None,None,None,left,1,0.7842805001419038,126.4006399998907,None,None,None,,,,,,,erfnpg,001,0,fr,2022-05-10_14h32.08.030,3-AFC_adaptive_staircase_mess,2022.1.1,35.54605131782861,
,,,,,0,0,0,0,9,0,9,0,,,,,,,,,,,,,,,,up,1000,-5,2.4772509540239506e-05,-1,2,-1,-5.0,129.72275560996496,129.9463549000211,128.67863039998338,128.99652649997734,129.69458899996243,130.00097989989445,130.67460819985718,130.99381749983877,up,1,2.371007200097665,128.7343712998554,None,None,None,,,,,,,erfnpg,001,0,fr,2022-05-10_14h32.08.030,3-AFC_adaptive_staircase_mess,2022.1.1,35.54605131782861,
,,,,,0,0,0,0,10,0,10,0,,,,,,,,,,,,,,,,up,1000,-10.0,1.3930605843148848e-05,-1,2,-1,-5.0,133.6528665099293,133.8812773998361,132.57304009981453,132.89809269993566,133.5829896000214,133.91112850001082,134.5724466999527,134.8970113999676,up,1,2.7947444999590516,132.62990639987402,None,135.13454029988497,None,,,,,,,erfnpg,001,0,fr,2022-05-10_14h32.08.030,3-AFC_adaptive_staircase_mess,2022.1.1,35.54605131782861,
,,,,,0,0,0,0,11,0,11,0,,,,,,,,,,,,,,,,left,1000,-10.0,1.3930605843148848e-05,-1,2,-1,-5.0,136.97245320999065,137.18971790000796,136.91459789988585,137.21687459992245,137.9109706999734,138.22113560000435,138.93134469981305,139.25605189986527,up,0,3.2681795998942107,136.97308119991794,None,139.46027959999628,None,,,,,,,erfnpg,001,0,fr,2022-05-10_14h32.08.030,3-AFC_adaptive_staircase_mess,2022.1.1,35.54605131782861,
,,,,,0,0,0,0,12,0,12,0,,,,,,,,,,,,,,,,up,1000,-7.5,1.8576761454858622e-05,1,3,1,2.5,142.7850992099382,None,141.71022949996404,142.02326089981943,142.72756799985655,143.03271780000068,143.73218879988417,144.0546555998735,left,0,3.910253700101748,141.77023299993016,None,144.29057439998724,None,,,,,,,erfnpg,001,0,fr,2022-05-10_14h32.08.030,3-AFC_adaptive_staircase_mess,2022.1.1,35.54605131782861,
,,,,,0,0,0,0,13,0,13,0,,,,,,,,,,,,,,,,right,1000,-5.0,2.4772509540239506e-05,1,3,1,2.5,149.24580191001297,None,147.18646619981155,147.50933979987167,148.2051146000158,148.52818579995073,149.18826600001194,149.49059039982967,left,0,3.0778590000700206,147.24388249986805,None,149.7543440000154,None,,,,,,,erfnpg,001,0,fr,2022-05-10_14h32.08.030,3-AFC_adaptive_staircase_mess,2022.1.1,35.54605131782861,
,,,,,0,0,0,0,14,0,14,0,,,,,,,,,,,,,,,,up,1000,-2.5,3.303467240037979e-05,1,3,1,2.5,152.84508580989205,None,151.7908463999629,152.09463219996542,152.78764149989001,153.09628429985605,153.79836979997344,154.12197689991444,up,1,2.389595900196582,151.85181669984013,None,None,None,,,,,,,erfnpg,001,0,fr,2022-05-10_14h32.08.030,3-AFC_adaptive_staircase_mess,2022.1.1,35.54605131782861,
,,,,,0,0,0,0,15,0,15,0,,,,,,,,,,,,,,,,up,1000,-2.5,3.303467240037979e-05,1,3,1,2.5,156.7820235099178,157.00176269980147,155.71465560002252,156.03464569989592,156.72491559991613,157.03217999986373,157.70976089988835,158.0316297998652,up,1,2.6117297001183033,155.77410559984855,None,158.26586879999377,None,,,,,,,erfnpg,001,0,fr,2022-05-10_14h32.08.030,3-AFC_adaptive_staircase_mess,2022.1.1,35.54605131782861,
,,,,,0,0,0,0,16,0,16,0,,,,,,,,,,,,,,,,up,1000,-7.5,1.8576761454858622e-05,-1,4,-1,-5.0,160.91446430999787,161.1262138998136,159.86522439983673,160.17562219989486,160.88629769999534,161.20828509982675,161.88011479983106,162.19771819980815,up,1,2.5872246001381427,159.92537890002131,None,162.41838299995288,None,,,,,,,erfnpg,001,0,fr,2022-05-10_14h32.08.030,3-AFC_adaptive_staircase_mess,2022.1.1,35.54605131782861,
,,,,,0,0,0,0,17,0,17,0,,,,,,,,,,,,,,,,right,1000,-7.5,1.8576761454858622e-05,-1,4,-1,-5.0,166.02716500982643,166.25175109994598,163.9828643000219,164.3113325999584,164.99168739980087,165.29728589998558,165.9989983998239,166.30751269985922,right,1,3.3355431999079883,164.04182079993188,None,166.53995719994418,None,,,,,,,erfnpg,001,0,fr,2022-05-10_14h32.08.030,3-AFC_adaptive_staircase_mess,2022.1.1,35.54605131782861,
,,,,,0,0,0,0,18,0,18,0,,,,,,,,,,,,,,,,up,1000,-12.5,1.0446480654270193e-05,-1,4,-1,-5.0,169.922487509856,170.13495809980668,168.8763635000214,169.19789369986393,169.89432089985348,170.21892819995992,170.88180199987255,171.20654339995235,up,1,2.8445116002112627,168.9332500998862,None,171.44117519981228,None,,,,,,,erfnpg,001,0,fr,2022-05-10_14h32.08.030,3-AFC_adaptive_staircase_mess,2022.1.1,35.54605131782861,
,,,,,0,0,0,0,19,0,19,0,,,,,,,,,,,,,,,,right,1000,-12.5,1.0446480654270193e-05,-1,4,-1,-5.0,175.31747020985932,None,173.25165309989825,173.5728577999398,174.26894310000353,174.59262739983387,175.25991739984602,175.5679236999713,right,1,3.0913717998191714,173.30934019992128,None,175.80059469980188,None,,,,,,,erfnpg,001,0,fr,2022-05-10_14h32.08.030,3-AFC_adaptive_staircase_mess,2022.1.1,35.54605131782861,
,,,,,0,0,0,0,20,0,20,0,,,,,,,,,,,,,,,,up,1000,-17.5,5.874487774697645e-06,-1,4,-1,-5.0,178.92492670980283,179.14520209981129,177.874201499857,178.19989899988286,178.86767409997992,179.17264409991913,179.86709079984576,180.16995280003175,right,0,3.4304446999449283,177.93019480002113,None,180.433527499903,None,,,,,,,erfnpg,001,0,fr,2022-05-10_14h32.08.030,3-AFC_adaptive_staircase_mess,2022.1.1,35.54605131782861,
,,,,,0,0,0,0,21,0,21,0,,,,,,,,,,,,,,,,up,1000,-15.0,7.833755350540743e-06,1,5,1,2.5,183.91507000983694,184.13525829999708,182.85869949986227,183.1904706999194,183.85860079992563,184.16284629981965,184.88410059991293,185.2133668998722,up,1,3.532078299904242,182.91677229991183,None,185.41845300002024,None,,,,,,,erfnpg,001,0,fr,2022-05-10_14h32.08.030,3-AFC_adaptive_staircase_mess,2022.1.1,35.54605131782861,
,,,,,0,0,0,0,22,0,22,0,,,,,,,,,,,,,,,,left,1000,-15.0,7.833755350540743e-06,1,5,1,2.5,187.9710391098168,188.18664859980345,187.91554079996422,188.21388299996033,188.91137799993157,189.23070700000972,189.9268926999066,190.25069199991412,up,0,2.699490899918601,187.97409379994497,None,190.4822374000214,None,,,,,,,erfnpg,001,0,fr,2022-05-10_14h32.08.030,3-AFC_adaptive_staircase_mess,2022.1.1,35.54605131782861,
,,,,,0,0,0,0,23,0,23,0,,,,,,,,,,,,,,,,right,1000,-12.5,1.0446480654270193e-05,1,5,1,2.5,194.2053906099871,None,192.14543349994346,192.4721180999186,193.14633079990745,193.46746039995924,194.1477008999791,194.45435309992172,right,1,2.997559200040996,192.20290149981156,None,194.7150788998697,None,,,,,,,erfnpg,001,0,fr,2022-05-10_14h32.08.030,3-AFC_adaptive_staircase_mess,2022.1.1,35.54605131782861,
,,,,,0,0,0,0,24,0,24,0,,,,,,,,,,,,,,,,up,1000,-12.5,1.0446480654270193e-05,1,5,1,2.5,197.76120890998283,None,196.70685099996626,197.03128939983435,197.7043008999899,198.01830339990556,198.7114535998553,199.03324060002342,right,0,3.5736336999107152,196.76370839984156,None,199.24253879999742,None,,,,,,,erfnpg,001,0,fr,2022-05-10_14h32.08.030,3-AFC_adaptive_staircase_mess,2022.1.1,35.54605131782861,
,,,,,0,0,0,0,25,0,25,0,,,,,,,,,,,,,,,,right,1000,-10.0,1.3930605843148848e-05,1,5,1,2.5,203.86243761000225,204.0832598998677,201.8151481000241,202.14178860001266,202.83243660000153,203.15880789980292,203.83427099999972,204.14309089980088,right,1,3.6967921000905335,201.87284670001827,None,204.376646499848,None,,,,,,,erfnpg,001,0,fr,2022-05-10_14h32.08.030,3-AFC_adaptive_staircase_mess,2022.1.1,35.54605131782861,
,,,,,0,0,0,0,26,0,26,0,,,,,,,,,,,,,,,,right,1000,-10.0,1.3930605843148848e-05,1,5,1,2.5,209.08478480991909,209.30789579986595,207.02951869997196,207.35047769988887,208.05035359994508,208.3752524999436,209.05661819991656,209.36335689993575,up,0,2.6565784998238087,207.0892558998894,None,209.59950209991075,None,,,,,,,erfnpg,001,0,fr,2022-05-10_14h32.08.030,3-AFC_adaptive_staircase_mess,2022.1.1,35.54605131782861,
,,,,,0,0,0,0,27,0,27,0,,,,,,,,,,,,,,,,right,1000,-7.5,1.8576761454858622e-05,1,5,1,2.5,213.26247970988044,213.48135569994338,211.232403999893,211.55492919986136,212.2350240999367,212.5341868000105,213.2343130998779,213.5364451999776,right,1,2.991835300112143,211.26437069987878,None,213.7705859998241,None,,,,,,,erfnpg,001,0,fr,2022-05-10_14h32.08.030,3-AFC_adaptive_staircase_mess,2022.1.1,35.54605131782861,
,,,,,0,0,0,0,28,0,28,0,,,,,,,,,,,,,,,,up,1000,-7.5,1.8576761454858622e-05,1,5,1,2.5,216.8063497098163,217.029712599935,215.7434991998598,216.06757479999214,216.748027499998,217.06113639986143,217.76216539996676,218.0745635998901,right,0,3.4010389999020845,215.80042739980854,None,218.3077240998391,None,,,,,,,erfnpg,001,0,fr,2022-05-10_14h32.08.030,3-AFC_adaptive_staircase_mess,2022.1.1,35.54605131782861,
,,,,,0,0,0,0,29,0,29,0,,,,,,,,,,,,,,,,up,1000,-5.0,2.4772509540239506e-05,1,5,1,2.5,221.75536790997722,221.97229860001244,220.72005789983086,221.04359030001797,221.69861169997603,221.99940289999358,222.70877689984627,223.0328462999314,up,1,3.154506399994716,220.75038819992915,None,223.26822039997205,None,,,,,,,erfnpg,001,0,fr,2022-05-10_14h32.08.030,3-AFC_adaptive_staircase_mess,2022.1.1,35.54605131782861,
,,,,,0,0,0,0,30,0,30,0,,,,,,,,,,,,,,,,right,1000,-5.0,2.4772509540239506e-05,1,5,1,2.5,227.4560715099331,227.66924229986034,225.41389879980125,225.73673289990984,226.42092399997637,226.72631209995598,227.42790489993058,227.73039039992727,left,0,2.641121400054544,225.47189469984733,None,227.9721776000224,None,,,,,,,erfnpg,001,0,fr,2022-05-10_14h32.08.030,3-AFC_adaptive_staircase_mess,2022.1.1,35.54605131782861,
,,,,,0,0,0,0,31,0,31,0,,,,,,,,,,,,,,,,left,1000,-2.5,3.303467240037979e-05,1,5,1,2.5,229.64132770984435,None,229.5839175998699,229.90570120001212,230.58595809992403,230.91458390001208,231.58726689987816,231.88786010001786,up,0,4.039193399948999,229.64243979984894,None,232.13118499983102,None,,,,,,,erfnpg,001,0,fr,2022-05-10_14h32.08.030,3-AFC_adaptive_staircase_mess,2022.1.1,35.54605131782861,
,,,,,0,0,0,0,32,0,32,0,,,,,,,,,,,,,,,,right,1000,0.0,4.405244365040069e-05,1,5,1,2.5,237.23104520998896,237.44673399999738,235.16271309996955,235.46814260003157,236.17892749980092,236.50014939997345,237.17088049999438,237.47822649986483,right,1,2.8422316999640316,235.22255469998345,None,237.71552719990723,None,,,,,,,erfnpg,001,0,fr,2022-05-10_14h32.08.030,3-AFC_adaptive_staircase_mess,2022.1.1,35.54605131782861,
,,,,,0,0,0,0,33,0,33,0,,,,,,,,,,,,,,,,left,1000,0.0,4.405244365040069e-05,1,5,1,2.5,239.60265790992418,None,239.54268509987742,239.85423499997705,240.55453009996563,240.8539618998766,None,None,left,1,1.8510881001129746,239.60640179994516,None,None,None,,,,,,,erfnpg,001,0,fr,2022-05-10_14h32.08.030,3-AFC_adaptive_staircase_mess,2022.1.1,35.54605131782861,
,,,,,0,0,0,0,34,0,34,0,,,,,,,,,,,,,,,,left,1000,-5.0,2.4772509540239506e-05,-1,6,-1,-5.0,243.01393611002715,None,242.95655189990066,243.2666585999541,243.94678549980745,244.25471579981968,244.95864029997028,245.27694979985245,right,0,3.2104208001401275,243.01418659999035,None,245.5152329998091,None,,,,,,,erfnpg,001,0,fr,2022-05-10_14h32.08.030,3-AFC_adaptive_staircase_mess,2022.1.1,35.54605131782861,
,,,,,1,0,1,0,0,0,0,0,,,,,,,,,,,,,[],[],10,left,1500,30,0.001527460556607757,0,0,-1,10,250.54348721001298,250.7643553998787,250.51532060001045,250.8248755999375,None,None,None,None,left,1,0.8476097998209298,250.54641299997456,None,None,None,right,2.752725499914959,247.297165799886,None,247.297165799886,None,erfnpg,001,0,fr,2022-05-10_14h32.08.030,3-AFC_adaptive_staircase_mess,2022.1.1,35.54605131782861,
,,,,,1,0,1,0,1,0,1,0,,,,,,,,,,,,,,,,right,1500,30,0.001527460556607757,0,0,-1,10,254.942865909962,255.16753209987655,252.90439289994538,253.2160316000227,253.89575859997422,254.2229695999995,254.91469929995947,255.22785249981098,right,1,2.462695699883625,252.96246899990365,None,255.46012020991185,None,,,,,,,erfnpg,001,0,fr,2022-05-10_14h32.08.030,3-AFC_adaptive_staircase_mess,2022.1.1,35.54605131782861,
,,,,,1,0,1,0,2,0,2,0,,,,,,,,,,,,,,,,left,1500,10,0.0001527460556607757,-1,0,-1,-10,256.95478381002323,None,256.89351770002395,257.2225014998112,None,None,None,None,left,1,0.7991470000706613,256.961907699937,None,None,None,,,,,,,erfnpg,001,0,fr,2022-05-10_14h32.08.030,3-AFC_adaptive_staircase_mess,2022.1.1,35.54605131782861,
,,,,,1,0,1,0,3,0,3,0,,,,,,,,,,,,,,,,left,1500,10,0.0001527460556607757,-1,0,-1,-10,259.31911950996147,259.5391519998666,259.2582685998641,259.5702543000225,None,None,None,None,left,1,0.5682848999276757,259.32082279981114,None,None,None,,,,,,,erfnpg,001,0,fr,2022-05-10_14h32.08.030,3-AFC_adaptive_staircase_mess,2022.1.1,35.54605131782861,
,,,,,1,0,1,0,4,0,4,0,,,,,,,,,,,,,,,,up,1500,0,4.830254394949071e-05,-1,0,-1,-10,None,None,261.35054349992424,261.6628866000101,None,None,None,None,left,0,0.7032550999429077,261.409553400008,None,None,None,,,,,,,erfnpg,001,0,fr,2022-05-10_14h32.08.030,3-AFC_adaptive_staircase_mess,2022.1.1,35.54605131782861,
,,,,,1,0,1,0,5,0,5,0,,,,,,,,,,,,,,,,left,1500,5,8.589541935787943e-05,1,1,1,5,263.6594933098648,None,263.60023349989206,263.91063519986346,264.600052600028,None,None,None,left,1,1.1869298999663442,263.6633776000235,None,None,None,,,,,,,erfnpg,001,0,fr,2022-05-10_14h32.08.030,3-AFC_adaptive_staircase_mess,2022.1.1,35.54605131782861,
,,,,,1,0,1,0,6,0,6,0,,,,,,,,,,,,,,,,up,1500,5,8.589541935787943e-05,1,1,1,5,267.3914802099578,267.6138120999094,266.33697069995105,266.63785199983977,267.3633135999553,267.6746041998267,268.34058670001104,268.67056309990585,right,0,3.3137679998762906,266.3994322998915,None,268.8877381000202,None,,,,,,,erfnpg,001,0,fr,2022-05-10_14h32.08.030,3-AFC_adaptive_staircase_mess,2022.1.1,35.54605131782861,
,,,,,1,0,1,0,7,0,7,0,,,,,,,,,,,,,,,,up,1500,10,0.0001527460556607757,1,1,1,5,272.24897110993044,272.4703672998585,271.20314629981294,271.5360045998823,272.19068009988405,272.4990061998833,273.2101619997993,273.5144574998412,up,1,2.255224199965596,271.26571259996854,None,None,None,,,,,,,erfnpg,001,0,fr,2022-05-10_14h32.08.030,3-AFC_adaptive_staircase_mess,2022.1.1,35.54605131782861,
,,,,,1,0,1,0,8,0,8,0,,,,,,,,,,,,,,,,up,1500,10,0.0001527460556607757,1,1,1,5,276.0819820099976,None,275.0111807999201,275.3427928998135,276.0242376998067,276.34705329989083,277.0291904998012,None,up,1,1.9358264000620693,275.07337459991686,None,None,None,,,,,,,erfnpg,001,0,fr,2022-05-10_14h32.08.030,3-AFC_adaptive_staircase_mess,2022.1.1,35.54605131782861,
,,,,,1,0,1,0,9,0,9,0,,,,,,,,,,,,,,,,up,1500,0,4.830254394949071e-05,-1,2,-1,-5.0,279.5444472098723,None,278.50459839985706,278.80738539993763,279.5162805998698,279.82666839985177,280.5120488998946,280.84652209980413,right,0,2.6696206000633538,278.5642559998669,None,281.0538474000059,None,,,,,,,erfnpg,001,0,fr,2022-05-10_14h32.08.030,3-AFC_adaptive_staircase_mess,2022.1.1,35.54605131782861,
,,,,,1,0,1,0,10,0,10,0,,,,,,,,,,,,,,,,right,1500,2.5,6.441247758465671e-05,1,3,1,2.5,284.78088830988855,None,282.74420229997486,283.05004399991594,283.7490830998868,284.08126389980316,284.752721699886,285.06610049982555,right,1,2.623361600097269,282.8017082000151,None,285.27827319991775,None,,,,,,,erfnpg,001,0,fr,2022-05-10_14h32.08.030,3-AFC_adaptive_staircase_mess,2022.1.1,35.54605131782861,
,,,,,1,0,1,0,11,0,11,0,,,,,,,,,,,,,,,,right,1500,2.5,6.441247758465671e-05,1,3,1,2.5,288.95505610988477,None,286.8954111998901,287.1981545998715,287.8867336998228,288.2203212999739,288.8976908000186,289.2041173998732,right,1,2.8861348999198526,286.95474129985087,None,289.4461713999044,None,,,,,,,erfnpg,001,0,fr,2022-05-10_14h32.08.030,3-AFC_adaptive_staircase_mess,2022.1.1,35.54605131782861,
,,,,,1,0,1,0,12,0,12,0,,,,,,,,,,,,,,,,right,1500,-2.5,3.622179800374953e-05,-1,4,-1,-5.0,293.39009820991197,None,291.3303592999,291.64846219983883,292.32686709985137,292.63094539986923,293.32879129983485,293.6418510999065,right,1,2.717436400009319,291.3638222999871,None,293.8817029998172,None,,,,,,,erfnpg,001,0,fr,2022-05-10_14h32.08.030,3-AFC_adaptive_staircase_mess,2022.1.1,35.54605131782861,
,,,,,1,0,1,0,13,0,13,0,,,,,,,,,,,,,,,,right,1500,-2.5,3.622179800374953e-05,-1,4,-1,-5.0,297.63353280997836,None,295.58054549992085,295.8912813998759,296.5732147998642,296.87954769982025,297.5736999998335,297.88573600002564,up,0,2.3587036998942494,295.61064029997215,None,None,None,,,,,,,erfnpg,001,0,fr,2022-05-10_14h32.08.030,3-AFC_adaptive_staircase_mess,2022.1.1,35.54605131782861,
,,,,,1,0,1,0,14,0,14,0,,,,,,,,,,,,,,,,right,1500,0.0,4.830254394949071e-05,1,5,1,2.5,301.4790840099566,None,299.4282279999461,299.7320606999565,300.4322964998428,300.7668562999461,301.42049609986134,301.7428112998605,up,0,2.561543299816549,299.48710209992714,None,301.99427829985507,None,,,,,,,erfnpg,001,0,fr,2022-05-10_14h32.08.030,3-AFC_adaptive_staircase_mess,2022.1.1,35.54605131782861,
,,,,,1,0,1,0,15,0,15,0,,,,,,,,,,,,,,,,left,1500,2.5,6.441247758465671e-05,1,5,1,2.5,303.5966580099892,303.81744150002487,303.5362024998758,303.8493138998747,304.5376060998533,304.84019030001946,305.5318571999669,305.861401299946,left,1,2.2545773999299854,303.60242569982074,None,None,None,,,,,,,erfnpg,001,0,fr,2022-05-10_14h32.08.030,3-AFC_adaptive_staircase_mess,2022.1.1,35.54605131782861,
,,,,,1,0,1,0,16,0,16,0,,,,,,,,,,,,,,,,up,1500,2.5,6.441247758465671e-05,1,5,1,2.5,308.381186509924,None,307.33446259982884,307.6394759998657,308.32481679995544,308.63422649982385,309.31929009989835,None,up,1,2.063704299973324,307.3936435999349,None,None,None,,,,,,,erfnpg,001,0,fr,2022-05-10_14h32.08.030,3-AFC_adaptive_staircase_mess,2022.1.1,35.54605131782861,
,,,,,1,0,1,0,17,0,17,0,,,,,,,,,,,,,,,,up,1500,-2.5,3.622179800374953e-05,-1,6,-1,-5.0,311.9729074099567,None,310.92378449998796,311.22679260000587,311.94474079995416,312.25436969986185,312.94442459987476,313.2744231999386,up,1,2.408246099948883,310.9853438998107,None,None,None,,,,,,,erfnpg,001,0,fr,2022-05-10_14h32.08.030,3-AFC_adaptive_staircase_mess,2022.1.1,35.54605131782861,
,,,,,2,0,2,0,0,0,0,0,,,,,,,,,,,,,[],[],10,left,2000,30,0.0023657562948074026,0,0,-1,10,318.1199532099534,None,318.05985329998657,318.372527099913,None,None,None,None,left,1,0.5512197001371533,318.12185969995335,None,None,None,up,3.12135719996877,314.46309199999087,None,314.46309199999087,None,erfnpg,001,0,fr,2022-05-10_14h32.08.030,3-AFC_adaptive_staircase_mess,2022.1.1,35.54605131782861,
,,,,,2,0,2,0,1,0,1,0,,,,,,,,,,,,,,,,up,2000,30,0.0023657562948074026,0,0,-1,10,321.242525209859,321.46721019991674,320.16937419981696,320.47774029988796,321.18452159990557,321.49564939993434,None,None,up,1,1.611156300175935,320.2457012999803,None,None,None,,,,,,,erfnpg,001,0,fr,2022-05-10_14h32.08.030,3-AFC_adaptive_staircase_mess,2022.1.1,35.54605131782861,
,,,,,2,0,2,0,2,0,2,0,,,,,,,,,,,,,,,,right,2000,10,0.00023657562948074026,-1,0,-1,-10,325.370303009823,None,323.34250509995036,323.67598359985277,324.34613529988565,324.6547516998835,325.34213639982045,325.66125079989433,right,1,2.3565863999538124,323.3719180999324,None,None,None,,,,,,,erfnpg,001,0,fr,2022-05-10_14h32.08.030,3-AFC_adaptive_staircase_mess,2022.1.1,35.54605131782861,
,,,,,2,0,2,0,3,0,3,0,,,,,,,,,,,,,,,,left,2000,10,0.00023657562948074026,-1,0,-1,-10,327.2692670099903,None,327.2113936999813,327.5168108998332,None,None,None,None,left,1,0.7645521000958979,327.2691857998725,None,None,None,,,,,,,erfnpg,001,0,fr,2022-05-10_14h32.08.030,3-AFC_adaptive_staircase_mess,2022.1.1,35.54605131782861,
,,,,,2,0,2,0,4,0,4,0,,,,,,,,,,,,,,,,up,2000,0,7.481178280472168e-05,-1,0,-1,-10,330.5580228098668,330.7766888998449,329.4975823999848,329.8211957998574,330.50029629981145,330.80534529988654,331.5056556998752,331.83413149998523,up,1,2.4271524001378566,329.557311499957,None,332.0328791099135,None,,,,,,,erfnpg,001,0,fr,2022-05-10_14h32.08.030,3-AFC_adaptive_staircase_mess,2022.1.1,35.54605131782861,
,,,,,2,0,2,0,5,0,5,0,,,,,,,,,,,,,,,,right,2000,0,7.481178280472168e-05,-1,0,-1,-10,335.5196710098069,335.73273429996334,333.48378290003166,333.78432169998996,334.4937539999373,334.82104119984433,335.4915043998044,335.8145504000131,right,1,2.539985300041735,333.54131679981947,None,336.02407749998383,None,,,,,,,erfnpg,001,0,fr,2022-05-10_14h32.08.030,3-AFC_adaptive_staircase_mess,2022.1.1,35.54605131782861,
,,,,,2,0,2,0,6,0,6,0,,,,,,,,,,,,,,,,left,2000,-10,2.3657562948074015e-05,-1,0,-1,-10,337.61388150993736,337.82887359987944,337.5556546000298,337.8571042998228,338.5412913998589,338.86320709995925,339.5598373999819,339.8848711999599,right,0,3.8431770000606775,337.6127160999458,None,340.0916834999807,None,,,,,,,erfnpg,001,0,fr,2022-05-10_14h32.08.030,3-AFC_adaptive_staircase_mess,2022.1.1,35.54605131782861,
,,,,,2,0,2,0,7,0,7,0,,,,,,,,,,,,,,,,left,2000,-5,4.206975708225974e-05,1,1,1,5,342.99396811001935,343.20908539998345,342.92414249992,343.237173399888,343.93688669987023,344.2666854998097,344.9364181999117,345.25341679994017,up,0,2.3800981999374926,342.99608429986984,None,None,None,,,,,,,erfnpg,001,0,fr,2022-05-10_14h32.08.030,3-AFC_adaptive_staircase_mess,2022.1.1,35.54605131782861,
,,,,,2,0,2,0,8,0,8,0,,,,,,,,,,,,,,,,up,2000,0,7.481178280472168e-05,1,1,1,5,347.92435130984524,None,346.87441769987345,347.1918814999517,347.8662231999915,348.1866978998296,348.87412659986876,None,up,1,2.0978560999501497,346.943139199866,None,None,None,,,,,,,erfnpg,001,0,fr,2022-05-10_14h32.08.030,3-AFC_adaptive_staircase_mess,2022.1.1,35.54605131782861,
,,,,,2,0,2,0,9,0,9,0,,,,,,,,,,,,,,,,up,2000,0,7.481178280472168e-05,1,1,1,5,351.56210930990056,351.7831156998873,350.5269883000292,350.8328383998014,351.53394269989803,351.8382617000025,352.53778839996085,352.8619857998565,up,1,2.338626499986276,350.55815889989026,None,None,None,,,,,,,erfnpg,001,0,fr,2022-05-10_14h32.08.030,3-AFC_adaptive_staircase_mess,2022.1.1,35.54605131782861,
,,,,,2,0,2,0,10,0,10,0,,,,,,,,,,,,,,,,up,2000,-10,2.3657562948074015e-05,-1,2,-1,-5.0,355.4318757098634,355.65825370000675,354.40714040002786,354.73449069983326,355.37403429998085,355.6869713999331,356.37281979992986,356.696861699922,left,0,3.6274935000110418,354.43657979997806,None,356.936540100025,None,,,,,,,erfnpg,001,0,fr,2022-05-10_14h32.08.030,3-AFC_adaptive_staircase_mess,2022.1.1,35.54605131782861,
,,,,,2,0,2,0,11,0,11,0,,,,,,,,,,,,,,,,right,2000,-7.5,3.154786722400965e-05,1,3,1,2.5,361.63287750999444,361.8580595999956,359.57120339991525,359.86835090001114,360.5833188998513,360.90550579992123,361.5751058999449,361.8865484998096,up,0,3.0436953001189977,359.6293353999499,None,362.1247042999603,None,,,,,,,erfnpg,001,0,fr,2022-05-10_14h32.08.030,3-AFC_adaptive_staircase_mess,2022.1.1,35.54605131782861,
,,,,,2,0,2,0,12,0,12,0,,,,,,,,,,,,,,,,right,2000,-5.0,4.206975708225974e-05,1,3,1,2.5,366.23054220988416,366.4489849000238,364.1697636998724,364.4933255999349,365.1825722998474,365.5099402000196,366.17350529995747,366.4653838998638,right,1,3.3733485999982804,364.22738019982353,None,366.73956509982236,None,,,,,,,erfnpg,001,0,fr,2022-05-10_14h32.08.030,3-AFC_adaptive_staircase_mess,2022.1.1,35.54605131782861,
,,,,,2,0,2,0,13,0,13,0,,,,,,,,,,,,,,,,left,2000,-5.0,4.206975708225974e-05,1,3,1,2.5,369.13959321002477,369.36089789983816,369.0821118999738,369.3877163999714,370.08496170002036,370.4067420999054,371.08445560000837,371.3868923999835,right,0,2.957467000000179,369.1402463000268,None,371.6524908998981,None,,,,,,,erfnpg,001,0,fr,2022-05-10_14h32.08.030,3-AFC_adaptive_staircase_mess,2022.1.1,35.54605131782861,
,,,,,2,0,2,0,14,0,14,0,,,,,,,,,,,,,,,,right,2000,-2.5,5.610092271509818e-05,1,3,1,2.5,375.64242290980184,375.8558894000016,373.58123059989884,373.905166399898,374.60074469982646,374.92439979990013,375.58714009984396,375.91119379992597,right,1,2.92035589995794,373.6396888999734,None,376.1456285000313,None,,,,,,,erfnpg,001,0,fr,2022-05-10_14h32.08.030,3-AFC_adaptive_staircase_mess,2022.1.1,35.54605131782861,
,,,,,2,0,2,0,15,0,15,0,,,,,,,,,,,,,,,,up,2000,-2.5,5.610092271509818e-05,1,3,1,2.5,379.08965570987203,None,378.0268741999753,378.3481266000308,379.03984289988875,379.3490295999218,380.0239489998203,380.3447912998963,left,0,2.4903235998935997,378.08619479998015,None,380.57959929993376,None,,,,,,,erfnpg,001,0,fr,2022-05-10_14h32.08.030,3-AFC_adaptive_staircase_mess,2022.1.1,35.54605131782861,
,,,,,2,0,2,0,16,0,16,0,,,,,,,,,,,,,,,,left,2000,0.0,7.481178280472168e-05,1,3,1,2.5,382.0905719098635,382.3093139999546,382.030465999851,382.33647159999236,383.0642227998469,383.38902179989964,384.02883689990267,384.35643669986166,right,0,3.0943134999834,382.0905422999058,None,384.5901497998275,None,,,,,,,erfnpg,001,0,fr,2022-05-10_14h32.08.030,3-AFC_adaptive_staircase_mess,2022.1.1,35.54605131782861,
,,,,,2,0,2,0,17,0,17,0,,,,,,,,,,,,,,,,left,2000,2.5,9.976311574844399e-05,1,3,1,2.5,386.6984001099598,386.9157899999991,386.67023349995725,386.9707941999659,387.6705738999881,387.9965578999836,388.6380205999594,388.9601369998418,right,0,3.7501079998910427,386.6993392999284,None,389.18974319985136,None,,,,,,,erfnpg,001,0,fr,2022-05-10_14h32.08.030,3-AFC_adaptive_staircase_mess,2022.1.1,35.54605131782861,
,,,,,2,0,2,0,18,0,18,0,,,,,,,,,,,,,,,,right,2000,5.0,0.0001330362529899405,1,3,1,2.5,393.9827679099515,394.20814699982293,391.9579079998657,392.2632720998954,392.96689959988,393.28975080000237,393.954601299949,394.26548999990337,right,1,2.7109548998996615,391.9944130999502,None,394.4718341999687,None,,,,,,,erfnpg,001,0,fr,2022-05-10_14h32.08.030,3-AFC_adaptive_staircase_mess,2022.1.1,35.54605131782861,
,,,,,2,0,2,0,19,0,19,0,,,,,,,,,,,,,,,,right,2000,5.0,0.0001330362529899405,1,3,1,2.5,398.2608366098255,None,396.2317366998177,396.5606455998495,397.19744549994357,397.5316563998349,398.20141059998423,398.5319922999479,right,1,2.5180059000849724,396.2663635998033,None,398.76864519994706,None,,,,,,,erfnpg,001,0,fr,2022-05-10_14h32.08.030,3-AFC_adaptive_staircase_mess,2022.1.1,35.54605131782861,
,,,,,2,0,2,0,20,0,20,0,,,,,,,,,,,,,,,,left,2000,0.0,7.481178280472168e-05,-1,4,-1,-5.0,400.3332979098894,400.54707969981246,400.30513129988685,400.6386914998293,401.27069529984146,401.6063033998944,402.2727985999081,402.60106939985417,right,0,2.850029099965468,400.33546799980104,None,402.8375907000154,None,,,,,,,erfnpg,001,0,fr,2022-05-10_14h32.08.030,3-AFC_adaptive_staircase_mess,2022.1.1,35.54605131782861,
,,,,,2,0,2,0,21,0,21,0,,,,,,,,,,,,,,,,right,2000,2.5,9.976311574844399e-05,1,5,1,2.5,406.73490361003206,None,404.6742630000226,405.00680149998516,405.6774356998503,406.00319830002263,406.70673700002953,407.04150939988904,right,1,2.9760218001902103,404.73655509995297,None,407.2458657999523,None,,,,,,,erfnpg,001,0,fr,2022-05-10_14h32.08.030,3-AFC_adaptive_staircase_mess,2022.1.1,35.54605131782861,
,,,,,2,0,2,0,22,0,22,0,,,,,,,,,,,,,,,,up,2000,2.5,9.976311574844399e-05,1,5,1,2.5,410.23776430981235,410.4521106998436,409.17798599996604,409.51358249993064,410.1785114000086,410.48284469987266,411.1775520998053,411.51256169984117,left,0,3.8291807000059634,409.2447875998914,None,411.7485499000177,None,,,,,,,erfnpg,001,0,fr,2022-05-10_14h32.08.030,3-AFC_adaptive_staircase_mess,2022.1.1,35.54605131782861,
,,,,,2,0,2,0,23,0,23,0,,,,,,,,,,,,,,,,left,2000,5.0,0.0001330362529899405,1,5,1,2.5,414.61621960992926,None,414.5557657999452,414.88245379994623,415.5542514999397,None,None,None,left,1,0.9974260998424143,414.61968429991975,None,None,None,,,,,,,erfnpg,001,0,fr,2022-05-10_14h32.08.030,3-AFC_adaptive_staircase_mess,2022.1.1,35.54605131782861,
,,,,,2,0,2,0,24,0,24,0,,,,,,,,,,,,,,,,left,2000,5.0,0.0001330362529899405,1,5,1,2.5,417.1468237100169,417.36547459987924,417.084324499825,417.3966367000248,None,None,None,None,left,1,0.5106659999582916,417.15391659992747,None,None,None,,,,,,,erfnpg,001,0,fr,2022-05-10_14h32.08.030,3-AFC_adaptive_staircase_mess,2022.1.1,35.54605131782861,
,,,,,2,0,2,0,25,0,25,0,,,,,,,,,,,,,,,,left,2000,0.0,7.481178280472168e-05,-1,6,-1,-5.0,419.21860601003283,419.4365498998668,419.1904394000303,419.5029341999907,420.16655309987254,420.50322489999235,421.18906639982015,421.5271936999634,right,0,2.952100299997255,419.22426399984397,None,421.7270164999645,None,,,,,,,erfnpg,001,0,fr,2022-05-10_14h32.08.030,3-AFC_adaptive_staircase_mess,2022.1.1,35.54605131782861,
,,,,,3,0,3,0,0,0,0,0,,,,,,,,,,,,,[],[],10,right,3000,30,0.001733684252262658,0,0,-1,10,440.3743988098111,None,438.31640789983794,438.644127599895,439.31294919992797,439.6403547998052,440.3113587999251,440.6446259999648,right,1,2.4880496999248862,438.3783863999415,None,440.8801628998481,None,right,14.603258399991319,423.254854099825,None,423.254854099825,None,erfnpg,001,0,fr,2022-05-10_14h32.08.030,3-AFC_adaptive_staircase_mess,2022.1.1,35.54605131782861,
,,,,,3,0,3,0,1,0,1,0,,,,,,,,,,,,,,,,left,3000,30,0.001733684252262658,0,0,-1,10,442.41078450991773,None,442.35040170000866,442.6781681999564,None,None,None,None,left,1,0.5796544998884201,442.4129762998782,None,None,None,,,,,,,erfnpg,001,0,fr,2022-05-10_14h32.08.030,3-AFC_adaptive_staircase_mess,2022.1.1,35.54605131782861,
,,,,,3,0,3,0,2,0,2,0,,,,,,,,,,,,,,,,up,3000,10,0.00017336842522626576,-1,0,-1,-10,445.54564300989733,None,444.48240019986406,444.8146638998296,445.48177079996094,445.81367970001884,None,None,up,1,1.5657665999606252,444.54698869981803,None,None,None,,,,,,,erfnpg,001,0,fr,2022-05-10_14h32.08.030,3-AFC_adaptive_staircase_mess,2022.1.1,35.54605131782861,
,,,,,3,0,3,0,3,0,3,0,,,,,,,,,,,,,,,,right,3000,10,0.00017336842522626576,-1,0,-1,-10,None,None,447.58344629989006,447.9163253000006,448.6213658999186,448.9521101999562,None,None,up,0,1.8410704999696463,447.6480801999569,None,None,None,,,,,,,erfnpg,001,0,fr,2022-05-10_14h32.08.030,3-AFC_adaptive_staircase_mess,2022.1.1,35.54605131782861,
,,,,,3,0,3,0,4,0,4,0,,,,,,,,,,,,,,,,left,3000,15,0.00030829750093074097,1,1,1,5,451.04847141001375,451.26721319998614,451.0203048000112,451.3308215998113,None,None,None,None,left,1,0.6091537999454886,451.0555714999791,None,None,None,,,,,,,erfnpg,001,0,fr,2022-05-10_14h32.08.030,3-AFC_adaptive_staircase_mess,2022.1.1,35.54605131782861,
,,,,,3,0,3,0,5,0,5,0,,,,,,,,,,,,,,,,right,3000,15,0.00030829750093074097,1,1,1,5,455.22258330993355,None,453.1567128000315,453.48939749994315,454.1606316999532,454.49319509998895,455.1593601999339,455.49149579997174,right,1,2.295739899855107,453.22588089993224,None,None,None,,,,,,,erfnpg,001,0,fr,2022-05-10_14h32.08.030,3-AFC_adaptive_staircase_mess,2022.1.1,35.54605131782861,
,,,,,3,0,3,0,6,0,6,0,,,,,,,,,,,,,,,,left,3000,5,9.749222998790222e-05,-1,2,-1,-5.0,457.0542576098349,None,456.99580999999307,457.3294495998416,None,None,None,None,left,1,0.5882534999400377,457.06064479984343,None,None,None,,,,,,,erfnpg,001,0,fr,2022-05-10_14h32.08.030,3-AFC_adaptive_staircase_mess,2022.1.1,35.54605131782861,
,,,,,3,0,3,0,7,0,7,0,,,,,,,,,,,,,,,,right,3000,5,9.749222998790222e-05,-1,2,-1,-5.0,461.19311880990864,461.4079751998652,459.1324876998551,459.4623084999621,460.1618995999452,460.49798509990796,461.1343939998187,461.4399710998405,right,1,2.504028100054711,459.1930488999933,None,461.7007490999531,None,,,,,,,erfnpg,001,0,fr,2022-05-10_14h32.08.030,3-AFC_adaptive_staircase_mess,2022.1.1,35.54605131782861,
,,,,,3,0,3,0,8,0,8,0,,,,,,,,,,,,,,,,up,3000,0.0,5.482390980715923e-05,-1,2,-1,-5.0,464.2328326098621,None,463.16537830000743,463.4994697999209,464.1687978999689,464.5034304999281,465.16944879991934,465.5044158999808,up,1,4.078974099829793,463.2342678999994,None,465.7379681998864,None,,,,,,,erfnpg,001,0,fr,2022-05-10_14h32.08.030,3-AFC_adaptive_staircase_mess,2022.1.1,35.54605131782861,
,,,,,3,0,3,0,9,0,9,0,,,,,,,,,,,,,,,,right,3000,0.0,5.482390980715923e-05,-1,2,-1,-5.0,470.8749313100241,None,468.805003099842,469.1374438998755,469.80972499982454,470.1430589000229,470.8174459999427,471.1294060999062,right,1,3.28648899984546,468.87356389989145,None,471.3634387999773,None,,,,,,,erfnpg,001,0,fr,2022-05-10_14h32.08.030,3-AFC_adaptive_staircase_mess,2022.1.1,35.54605131782861,
,,,,,3,0,3,0,10,0,10,0,,,,,,,,,,,,,,,,up,3000,-5.0,3.082975009307411e-05,-1,2,-1,-5.0,474.67474720994943,474.89476089994423,473.6242515000049,473.94908459996805,474.6465805999469,474.94954869989306,475.6424351998139,475.9710694998503,right,0,3.4071279999334365,473.68211489985697,None,476.17656579986215,None,,,,,,,erfnpg,001,0,fr,2022-05-10_14h32.08.030,3-AFC_adaptive_staircase_mess,2022.1.1,35.54605131782861,
,,,,,3,0,3,0,11,0,11,0,,,,,,,,,,,,,,,,left,3000,-2.5,4.1112132497353565e-05,1,3,1,2.5,478.6241119098384,478.83902990003116,478.56408789986745,478.86530700000003,479.5636245999485,479.868509599939,480.57216769992374,480.8939753000159,left,1,2.3232171998824924,478.6220390999224,None,None,None,,,,,,,erfnpg,001,0,fr,2022-05-10_14h32.08.030,3-AFC_adaptive_staircase_mess,2022.1.1,35.54605131782861,
,,,,,3,0,3,0,12,0,12,0,,,,,,,,,,,,,,,,right,3000,-2.5,4.1112132497353565e-05,1,3,1,2.5,484.48558380985634,None,482.43784009991214,482.73777399980463,483.4393974998966,483.76366189983673,484.42802809993736,484.72277219989337,left,0,2.637533999979496,482.4667259999551,None,484.9840212999843,None,,,,,,,erfnpg,001,0,fr,2022-05-10_14h32.08.030,3-AFC_adaptive_staircase_mess,2022.1.1,35.54605131782861,
,,,,,3,0,3,0,13,0,13,0,,,,,,,,,,,,,,,,right,3000,0.0,5.482390980715923e-05,1,3,1,2.5,488.6202427099459,488.83613549987786,486.5723905998748,486.89541359990835,487.568354499992,487.88862410001457,488.59207609994337,488.8915881998837,left,0,3.146075499942526,486.6306556998752,None,489.12359400000423,None,,,,,,,erfnpg,001,0,fr,2022-05-10_14h32.08.030,3-AFC_adaptive_staircase_mess,2022.1.1,35.54605131782861,
,,,,,3,0,3,0,14,0,14,0,,,,,,,,,,,,,,,,right,3000,2.5,7.310885872283589e-05,1,3,1,2.5,493.3153935099952,493.5290118998382,491.2691228999756,491.5911307998467,492.29044939996675,492.61416370002553,493.2872268999927,493.61380549985915,right,1,3.010139500023797,491.3270541999955,None,493.8217703998089,None,,,,,,,erfnpg,001,0,fr,2022-05-10_14h32.08.030,3-AFC_adaptive_staircase_mess,2022.1.1,35.54605131782861,
,,,,,3,0,3,0,15,0,15,0,,,,,,,,,,,,,,,,right,3000,2.5,7.310885872283589e-05,1,3,1,2.5,497.8513785099611,498.07679189997725,495.8058533000294,496.12646739999764,496.82820430002175,497.15093149989843,497.82321189995855,498.1361722999718,right,1,2.5548119000159204,495.8619921999052,None,498.3689943999052,None,,,,,,,erfnpg,001,0,fr,2022-05-10_14h32.08.030,3-AFC_adaptive_staircase_mess,2022.1.1,35.54605131782861,
,,,,,3,0,3,0,16,0,16,0,,,,,,,,,,,,,,,,up,3000,-2.5,4.1112132497353565e-05,-1,4,-1,-5.0,500.9418711098377,501.15599989984185,499.88788439985365,500.20970519981347,500.91370449983515,501.2387327000033,501.9086713998113,502.21223720000125,left,0,2.5993164000101388,499.9456982999109,None,502.4457433000207,None,,,,,,,erfnpg,001,0,fr,2022-05-10_14h32.08.030,3-AFC_adaptive_staircase_mess,2022.1.1,35.54605131782861,
,,,,,3,0,3,0,17,0,17,0,,,,,,,,,,,,,,,,left,3000,0.0,5.482390980715923e-05,1,5,1,2.5,504.1069630099926,504.3247537999414,504.04945899988525,504.3521670999471,505.0574811999686,505.38177639991045,506.052198600024,None,left,1,2.181677100015804,504.10735659999773,None,None,None,,,,,,,erfnpg,001,0,fr,2022-05-10_14h32.08.030,3-AFC_adaptive_staircase_mess,2022.1.1,35.54605131782861,
,,,,,3,0,3,0,18,0,18,0,,,,,,,,,,,,,,,,up,3000,0.0,5.482390980715923e-05,1,5,1,2.5,508.815099109849,None,507.7641559999902,508.08352370001376,508.78693249984644,509.09076539985836,509.7595736000221,510.0811026999727,right,0,3.0269677001051605,507.8226057998836,None,510.31515539996326,None,,,,,,,erfnpg,001,0,fr,2022-05-10_14h32.08.030,3-AFC_adaptive_staircase_mess,2022.1.1,35.54605131782861,
,,,,,3,0,3,0,19,0,19,0,,,,,,,,,,,,,,,,up,3000,2.5,7.310885872283589e-05,1,5,1,2.5,513.3743821100331,513.5891821000259,512.3107412999962,512.6435526998248,513.3171945998911,513.6206172998063,None,None,up,1,1.7555513998959213,512.3740128998179,None,None,None,,,,,,,erfnpg,001,0,fr,2022-05-10_14h32.08.030,3-AFC_adaptive_staircase_mess,2022.1.1,35.54605131782861,
,,,,,3,0,3,0,20,0,20,0,,,,,,,,,,,,,,,,right,3000,2.5,7.310885872283589e-05,1,5,1,2.5,517.6931739099789,None,515.6347218998708,515.9532697999384,516.6214501999784,516.9542465999257,517.6351854999084,517.9449987998232,right,1,2.4378201998770237,515.6903267998714,None,518.1772598099894,None,,,,,,,erfnpg,001,0,fr,2022-05-10_14h32.08.030,3-AFC_adaptive_staircase_mess,2022.1.1,35.54605131782861,
,,,,,3,0,3,0,21,0,21,0,,,,,,,,,,,,,,,,up,3000,-2.5,4.1112132497353565e-05,-1,6,-1,-5.0,520.6711341100279,520.8956060998607,519.6139902998693,519.9375716999639,520.6148232999258,520.9271124999505,521.6231572998222,521.9315189998597,left,0,2.807782999938354,519.6737010998186,None,522.1670335999224,None,,,,,,,erfnpg,001,0,fr,2022-05-10_14h32.08.030,3-AFC_adaptive_staircase_mess,2022.1.1,35.54605131782861,
,,,,,4,0,4,0,0,0,0,0,,,,,,,,,,,,,[],[],10,up,4000,30,0.0026544222211549416,0,0,-1,10,539.1690694100223,None,538.1365635998081,538.4671557999682,539.1092981998809,539.4177252999507,None,None,up,1,1.5119647001847625,538.1690107998438,None,None,None,right,14.10843320004642,523.5412973999046,None,523.5412973999046,None,erfnpg,001,0,fr,2022-05-10_14h32.08.030,3-AFC_adaptive_staircase_mess,2022.1.1,35.54605131782861,
,,,,,4,0,4,0,1,0,1,0,,,,,,,,,,,,,,,,up,4000,30,0.0026544222211549416,0,0,-1,10,542.2046105099841,None,541.161689599976,541.4632867998444,542.1764438999817,542.4875482998323,None,None,up,1,1.391126099973917,541.2175451000221,None,None,None,,,,,,,erfnpg,001,0,fr,2022-05-10_14h32.08.030,3-AFC_adaptive_staircase_mess,2022.1.1,35.54605131782861,
,,,,,4,0,4,0,2,0,2,0,,,,,,,,,,,,,,,,left,4000,10,0.00026544222211549425,-1,0,-1,-10,544.1555621099658,None,544.0984008999076,544.4202419000212,None,None,None,None,left,1,0.6128058000467718,544.1563958998304,None,None,None,,,,,,,erfnpg,001,0,fr,2022-05-10_14h32.08.030,3-AFC_adaptive_staircase_mess,2022.1.1,35.54605131782861,
,,,,,4,0,4,0,3,0,3,0,,,,,,,,,,,,,,,,left,4000,10,0.00026544222211549425,-1,0,-1,-10,546.3057846098206,546.5242355000228,546.2451342998538,546.55641069985,None,None,None,None,left,1,0.42866009986028075,546.3084103998262,None,None,None,,,,,,,erfnpg,001,0,fr,2022-05-10_14h32.08.030,3-AFC_adaptive_staircase_mess,2022.1.1,35.54605131782861,
,,,,,4,0,4,0,4,0,4,0,,,,,,,,,,,,,,,,right,4000,0,8.394020090612804e-05,-1,0,-1,-10,550.2550176099874,None,548.218028999865,548.5204216998536,549.2283900999464,549.5429056999274,550.2268509999849,550.5503928998951,right,1,2.2959382999688387,548.2808713999111,None,None,None,,,,,,,erfnpg,001,0,fr,2022-05-10_14h32.08.030,3-AFC_adaptive_staircase_mess,2022.1.1,35.54605131782861,
,,,,,4,0,4,0,5,0,5,0,,,,,,,,,,,,,,,,right,4000,0,8.394020090612804e-05,-1,0,-1,-10,554.1306959099136,None,552.0832436999772,552.4158053998835,553.05619319994,553.3646021999884,554.075150199933,554.3788913998287,right,1,2.447251500096172,552.1141410998534,None,554.6105526098515,None,,,,,,,erfnpg,001,0,fr,2022-05-10_14h32.08.030,3-AFC_adaptive_staircase_mess,2022.1.1,35.54605131782861,
,,,,,4,0,4,0,6,0,6,0,,,,,,,,,,,,,,,,right,4000,-10,2.6544222211549425e-05,-1,0,-1,-10,558.1020020099356,None,556.0447515000124,556.3456122998614,557.0591869999189,557.3645051999483,558.0438079999294,558.3654594998807,right,1,2.6008764000143856,556.1035839000251,None,558.5831343999598,None,,,,,,,erfnpg,001,0,fr,2022-05-10_14h32.08.030,3-AFC_adaptive_staircase_mess,2022.1.1,35.54605131782861,
,,,,,4,0,4,0,7,0,7,0,,,,,,,,,,,,,,,,left,4000,-10,2.6544222211549425e-05,-1,0,-1,-10,560.2547037098091,560.4790534998756,560.1945793998893,560.5069151998032,561.2178547999356,561.5171975998674,562.1997380999383,562.5181020000018,right,0,3.4856223999522626,560.2583684998099,None,562.7588014998473,None,,,,,,,erfnpg,001,0,fr,2022-05-10_14h32.08.030,3-AFC_adaptive_staircase_mess,2022.1.1,35.54605131782861,
,,,,,4,0,4,0,8,0,8,0,,,,,,,,,,,,,,,,up,4000,-5,4.720304381429618e-05,1,1,1,5,566.2942682099062,566.5231647999026,565.262000599876,565.5932421998587,566.2326946000103,566.5504460998345,567.2357393999118,567.5406451998278,left,0,2.2612644999753684,565.2917683999985,None,None,None,,,,,,,erfnpg,001,0,fr,2022-05-10_14h32.08.030,3-AFC_adaptive_staircase_mess,2022.1.1,35.54605131782861,
,,,,,4,0,4,0,9,0,9,0,,,,,,,,,,,,,,,,right,4000,0,8.394020090612804e-05,1,1,1,5,571.10393420998,None,569.0391220999882,569.3385909998324,570.055903499946,570.366768399952,571.0475655000191,571.3608915000223,right,1,2.643772999988869,569.1010026999284,None,571.5996417999268,None,,,,,,,erfnpg,001,0,fr,2022-05-10_14h32.08.030,3-AFC_adaptive_staircase_mess,2022.1.1,35.54605131782861,
,,,,,4,0,4,0,10,0,10,0,,,,,,,,,,,,,,,,right,4000,0,8.394020090612804e-05,1,1,1,5,575.26772150998,None,573.2203817998525,573.5332535000052,574.2105067998637,574.5238224999048,575.2066496999469,575.5287211998366,right,1,2.5767660001292825,573.249368699966,None,575.7791895000264,None,,,,,,,erfnpg,001,0,fr,2022-05-10_14h32.08.030,3-AFC_adaptive_staircase_mess,2022.1.1,35.54605131782861,
,,,,,4,0,4,0,11,0,11,0,,,,,,,,,,,,,,,,up,4000,-10,2.6544222211549425e-05,-1,2,-1,-5.0,578.3788990098517,None,577.3196012999397,577.6268790999893,578.3225040999241,578.6436558000278,579.320635400014,579.6280033998191,left,0,2.700736300088465,577.3795039998367,None,579.8744263998233,None,,,,,,,erfnpg,001,0,fr,2022-05-10_14h32.08.030,3-AFC_adaptive_staircase_mess,2022.1.1,35.54605131782861,
,,,,,4,0,4,0,12,0,12,0,,,,,,,,,,,,,,,,left,4000,-7.5,3.53972892192069e-05,1,3,1,2.5,581.6084919098764,581.8268083999865,581.550699400017,581.8550260998309,582.5430005998351,582.8480485000182,None,None,up,0,1.8112664001528174,581.612740600016,None,None,None,,,,,,,erfnpg,001,0,fr,2022-05-10_14h32.08.030,3-AFC_adaptive_staircase_mess,2022.1.1,35.54605131782861,
,,,,,4,0,4,0,13,0,13,0,,,,,,,,,,,,,,,,right,4000,-5.0,4.720304381429618e-05,1,3,1,2.5,586.9589204098563,None,584.918036099989,585.2519997998606,585.904446200002,586.2188990998548,586.9017050999682,587.2220814998727,right,1,2.6032704999670386,584.9498395998962,None,587.4643631998915,None,,,,,,,erfnpg,001,0,fr,2022-05-10_14h32.08.030,3-AFC_adaptive_staircase_mess,2022.1.1,35.54605131782861,
,,,,,4,0,4,0,14,0,14,0,,,,,,,,,,,,,,,,right,4000,-5.0,4.720304381429618e-05,1,3,1,2.5,591.0713589100167,None,589.0309032998048,589.350052600028,590.0279412998352,590.3394935999531,591.0136574998032,591.3354464999866,right,1,2.746327199973166,589.0949421999976,None,591.5830474998802,None,,,,,,,erfnpg,001,0,fr,2022-05-10_14h32.08.030,3-AFC_adaptive_staircase_mess,2022.1.1,35.54605131782861,
,,,,,4,0,4,0,15,0,15,0,,,,,,,,,,,,,,,,left,4000,-10.0,2.6544222211549425e-05,-1,4,-1,-5.0,593.3835225100163,593.6051823999733,593.3553559000138,593.6665721000172,594.3540846998803,594.6604302998167,595.3526125999633,595.6569902999327,up,0,3.6083595999516547,593.3841665999498,None,595.8966506000143,None,,,,,,,erfnpg,001,0,fr,2022-05-10_14h32.08.030,3-AFC_adaptive_staircase_mess,2022.1.1,35.54605131782861,
,,,,,4,0,4,0,16,0,16,0,,,,,,,,,,,,,,,,left,4000,-7.5,3.53972892192069e-05,1,5,1,2.5,598.5249513098504,598.7441953998059,598.4650806998834,598.7772001000121,599.4671574998647,599.7696888998616,600.4613665998913,600.7759895999916,up,0,3.0401767999865115,598.5293148998171,None,601.0274298998993,None,,,,,,,erfnpg,001,0,fr,2022-05-10_14h32.08.030,3-AFC_adaptive_staircase_mess,2022.1.1,35.54605131782861,
,,,,,4,0,4,0,17,0,17,0,,,,,,,,,,,,,,,,up,4000,-5.0,4.720304381429618e-05,1,5,1,2.5,604.0910445099696,604.316972799832,603.049421899952,603.3561857999302,604.0317408000119,604.3494322998449,605.0435558999889,605.3567182000261,right,0,2.8100586999207735,603.1098336998839,None,605.5906098999549,None,,,,,,,erfnpg,001,0,fr,2022-05-10_14h32.08.030,3-AFC_adaptive_staircase_mess,2022.1.1,35.54605131782861,
,,,,,4,0,4,0,18,0,18,0,,,,,,,,,,,,,,,,up,4000,-2.5,6.294627058970837e-05,1,5,1,2.5,608.4635619099251,608.6872787999455,607.4163821998518,607.7197351998184,608.4353952999227,608.7530934999231,None,None,up,1,1.8481338999699801,607.4805636999663,None,None,None,,,,,,,erfnpg,001,0,fr,2022-05-10_14h32.08.030,3-AFC_adaptive_staircase_mess,2022.1.1,35.54605131782861,
,,,,,4,0,4,0,19,0,19,0,,,,,,,,,,,,,,,,right,4000,-2.5,6.294627058970837e-05,1,5,1,2.5,612.888670409983,None,610.8380421998445,611.1407186000142,611.8470814998727,612.1764726999681,612.83073409996,613.1251846000087,right,1,2.8453251000028104,610.8995536998846,None,613.3840129999444,None,,,,,,,erfnpg,001,0,fr,2022-05-10_14h32.08.030,3-AFC_adaptive_staircase_mess,2022.1.1,35.54605131782861,
,,,,,4,0,4,0,20,0,20,0,,,,,,,,,,,,,,,,right,4000,-7.5,3.53972892192069e-05,-1,6,-1,-5.0,617.2720527098979,617.4960777999368,615.2317480999045,615.5317969999742,616.2395624998026,616.5675889998674,617.2438860998955,617.5557073999662,right,1,3.1912983001675457,615.289286499843,None,617.787708699936,None,,,,,,,erfnpg,001,0,fr,2022-05-10_14h32.08.030,3-AFC_adaptive_staircase_mess,2022.1.1,35.54605131782861,
,,,,,5,0,5,0,0,0,0,0,,,,,,,,,,,,,[],[],10,up,6000,30,0.003664122665694519,0,0,-1,10,629.0504542099777,629.2756503999699,628.0138637998607,628.3388014999218,628.9937658000272,629.304294699803,None,None,up,1,1.4458933998830616,628.0432644998655,None,None,None,right,7.983459600014612,619.5689440998249,None,619.5689440998249,None,erfnpg,001,0,fr,2022-05-10_14h32.08.030,3-AFC_adaptive_staircase_mess,2022.1.1,35.54605131782861,
,,,,,5,0,5,0,1,0,1,0,,,,,,,,,,,,,,,,left,6000,30,0.003664122665694519,0,0,-1,10,631.0337097099516,None,630.9734398999717,631.2862761998549,None,None,None,None,left,1,0.5647183998953551,631.0359333998058,None,None,None,,,,,,,erfnpg,001,0,fr,2022-05-10_14h32.08.030,3-AFC_adaptive_staircase_mess,2022.1.1,35.54605131782861,
,,,,,5,0,5,0,2,0,2,0,,,,,,,,,,,,,,,,up,6000,10,0.00036641226656945183,-1,0,-1,-10,634.113287109835,None,633.0636558998376,633.3859043999109,634.0851204998326,634.3890421998221,None,None,up,1,1.3910443000495434,633.121289299801,None,None,None,,,,,,,erfnpg,001,0,fr,2022-05-10_14h32.08.030,3-AFC_adaptive_staircase_mess,2022.1.1,35.54605131782861,
,,,,,5,0,5,0,3,0,3,0,,,,,,,,,,,,,,,,up,6000,10,0.00036641226656945183,-1,0,-1,-10,637.060541609954,637.2823614999652,635.9935742998496,636.322164000012,637.0323749999516,637.342154199956,None,None,up,1,1.4497543999459594,636.0549667000305,None,None,None,,,,,,,erfnpg,001,0,fr,2022-05-10_14h32.08.030,3-AFC_adaptive_staircase_mess,2022.1.1,35.54605131782861,
,,,,,5,0,5,0,4,0,4,0,,,,,,,,,,,,,,,,left,6000,0,0.00011586973249842387,-1,0,-1,-10,639.0491183099336,None,639.0028674998321,639.306461900007,None,None,None,None,left,1,0.5223922999575734,639.0619365000166,None,None,None,,,,,,,erfnpg,001,0,fr,2022-05-10_14h32.08.030,3-AFC_adaptive_staircase_mess,2022.1.1,35.54605131782861,
,,,,,5,0,5,0,5,0,5,0,,,,,,,,,,,,,,,,right,6000,0,0.00011586973249842387,-1,0,-1,-10,643.1149519099388,None,641.0569550998043,641.3814733999316,642.0498827998526,642.3791039998177,643.0579776000232,643.3654699998442,right,1,2.2931500000413507,641.1152490999084,None,None,None,,,,,,,erfnpg,001,0,fr,2022-05-10_14h32.08.030,3-AFC_adaptive_staircase_mess,2022.1.1,35.54605131782861,
,,,,,5,0,5,0,6,0,6,0,,,,,,,,,,,,,,,,up,6000,-10,3.664122665694518e-05,-1,0,-1,-10,645.9583772099111,646.1780822998844,644.9270768999122,645.2279915998224,645.8992860999424,646.2067911999766,646.9093173998408,647.2128963000141,up,1,3.8890080000273883,644.9593720999546,None,647.4524509999901,None,,,,,,,erfnpg,001,0,fr,2022-05-10_14h32.08.030,3-AFC_adaptive_staircase_mess,2022.1.1,35.54605131782861,
,,,,,5,0,5,0,7,0,7,0,,,,,,,,,,,,,,,,right,6000,-10,3.664122665694518e-05,-1,0,-1,-10,652.3621719099581,None,650.2984437998384,650.5942840999924,651.2991360998712,651.595636999933,652.3340052999556,652.6339217999484,up,0,4.429570999927819,650.3709229999222,None,652.8676068999339,None,,,,,,,erfnpg,001,0,fr,2022-05-10_14h32.08.030,3-AFC_adaptive_staircase_mess,2022.1.1,35.54605131782861,
,,,,,5,0,5,0,8,0,8,0,,,,,,,,,,,,,,,,left,6000,-5,6.515833892261494e-05,1,1,1,5,656.3305735098663,None,656.2742227998096,656.5886496999301,657.2921248998027,657.6182476999238,658.2899329999927,658.6018199999817,left,1,2.2768586000893265,656.3313473998569,None,None,None,,,,,,,erfnpg,001,0,fr,2022-05-10_14h32.08.030,3-AFC_adaptive_staircase_mess,2022.1.1,35.54605131782861,
,,,,,5,0,5,0,9,0,9,0,,,,,,,,,,,,,,,,up,6000,-5,6.515833892261494e-05,1,1,1,5,661.1681571099441,None,660.1175704000052,660.4392623000313,661.1195081998594,661.4275397998281,662.1077461999375,None,up,1,1.9966470000799745,660.1799991999287,None,None,None,,,,,,,erfnpg,001,0,fr,2022-05-10_14h32.08.030,3-AFC_adaptive_staircase_mess,2022.1.1,35.54605131782861,
,,,,,5,0,5,0,10,0,10,0,,,,,,,,,,,,,,,,left,6000,-15,2.0604875954866497e-05,-1,2,-1,-5.0,663.702250909945,663.9165107998997,663.6424574998673,663.94391859998,664.6611742000096,664.9768292999361,665.6430060998537,665.9479854998644,up,0,2.55657869996503,663.7005231999792,None,666.2140802999493,None,,,,,,,erfnpg,001,0,fr,2022-05-10_14h32.08.030,3-AFC_adaptive_staircase_mess,2022.1.1,35.54605131782861,
,,,,,5,0,5,0,11,0,11,0,,,,,,,,,,,,,,,,right,6000,-12.5,2.7477043692881217e-05,1,3,1,2.5,669.8034044098574,670.0155062000267,667.738806599984,668.0611933998298,668.7578649998177,669.082534799818,669.7459482999984,670.0701299000066,left,0,3.628025900106877,667.7968378998339,None,670.3001480998937,None,,,,,,,erfnpg,001,0,fr,2022-05-10_14h32.08.030,3-AFC_adaptive_staircase_mess,2022.1.1,35.54605131782861,
,,,,,5,0,5,0,12,0,12,0,,,,,,,,,,,,,,,,left,6000,-10.0,3.664122665694518e-05,1,3,1,2.5,672.9691220100037,673.1868981998414,672.9111829998437,673.2140688998625,673.9139601998031,674.2402573998552,674.9099117999431,675.2205980999861,right,0,4.232100400142372,672.9689605999738,None,675.4547154000029,None,,,,,,,erfnpg,001,0,fr,2022-05-10_14h32.08.030,3-AFC_adaptive_staircase_mess,2022.1.1,35.54605131782861,
,,,,,5,0,5,0,13,0,13,0,,,,,,,,,,,,,,,,up,6000,-7.5,4.886186104779051e-05,1,3,1,2.5,679.7282882099505,679.945946399821,678.6842047998216,679.0041010000277,679.700121599948,680.0286433999427,680.7039450998418,681.0271767999511,right,0,5.050637100124732,678.7416250999086,None,681.2297100999858,None,,,,,,,erfnpg,001,0,fr,2022-05-10_14h32.08.030,3-AFC_adaptive_staircase_mess,2022.1.1,35.54605131782861,
,,,,,5,0,5,0,14,0,14,0,,,,,,,,,,,,,,,,up,6000,-5.0,6.515833892261494e-05,1,3,1,2.5,686.3272973098326,686.5455906998832,685.2931542999577,685.6130342998076,686.270143999951,686.572885699803,687.2788982999045,None,up,1,2.2145138001069427,685.3220577999018,None,None,None,,,,,,,erfnpg,001,0,fr,2022-05-10_14h32.08.030,3-AFC_adaptive_staircase_mess,2022.1.1,35.54605131782861,
,,,,,5,0,5,0,15,0,15,0,,,,,,,,,,,,,,,,right,6000,-5.0,6.515833892261494e-05,1,3,1,2.5,691.066337709967,691.2788346000016,689.0326689998619,689.3493325000163,690.0165766000282,690.3414429000113,691.0070415998343,691.310563699808,right,1,2.702347899787128,689.0591737998184,None,691.5745275998488,None,,,,,,,erfnpg,001,0,fr,2022-05-10_14h32.08.030,3-AFC_adaptive_staircase_mess,2022.1.1,35.54605131782861,
,,,,,5,0,5,0,16,0,16,0,,,,,,,,,,,,,,,,left,6000,-10.0,3.664122665694518e-05,-1,4,-1,-5.0,693.2981809100136,693.5190063999034,693.2410067999735,693.5460152998567,694.2670669998042,694.5892733999062,695.260286499979,695.5739287999459,right,0,2.7325945999473333,693.2993222000077,None,695.8183015999384,None,,,,,,,erfnpg,001,0,fr,2022-05-10_14h32.08.030,3-AFC_adaptive_staircase_mess,2022.1.1,35.54605131782861,
,,,,,5,0,5,0,17,0,17,0,,,,,,,,,,,,,,,,up,6000,-7.5,4.886186104779051e-05,1,5,1,2.5,698.558583609946,698.77540269983,697.5109039000235,697.8313058000058,698.5304169999436,698.8303294999059,699.5273137998302,699.8500637998804,left,0,2.833799600135535,697.5657072998583,None,700.085036699893,None,,,,,,,erfnpg,001,0,fr,2022-05-10_14h32.08.030,3-AFC_adaptive_staircase_mess,2022.1.1,35.54605131782861,
,,,,,5,0,5,0,18,0,18,0,,,,,,,,,,,,,,,,right,6000,-5.0,6.515833892261494e-05,1,5,1,2.5,703.9687226099893,704.1817039998714,701.9018329998944,702.2154852999374,702.9227497000247,703.2463063998148,703.9129691999406,704.2371763000265,right,1,2.5315012000501156,701.9502484998666,None,704.4716496998444,None,,,,,,,erfnpg,001,0,fr,2022-05-10_14h32.08.030,3-AFC_adaptive_staircase_mess,2022.1.1,35.54605131782861,
,,,,,5,0,5,0,19,0,19,0,,,,,,,,,,,,,,,,up,6000,-5.0,6.515833892261494e-05,1,5,1,2.5,707.031119809905,None,705.9777420999017,706.2997292999644,706.9747793998104,707.2830588999204,None,None,up,1,1.6300064001698047,706.0344679998234,None,None,None,,,,,,,erfnpg,001,0,fr,2022-05-10_14h32.08.030,3-AFC_adaptive_staircase_mess,2022.1.1,35.54605131782861,
,,,,,5,0,5,0,20,0,20,0,,,,,,,,,,,,,,,,left,6000,-10.0,3.664122665694518e-05,-1,6,-1,-5.0,709.2060268099419,709.4209878998809,709.1487731998786,709.4479445999023,710.1718537998386,710.5005629998632,711.1680523999967,711.4717188999057,right,0,2.6983397000003606,709.2063860998023,None,711.6997366999276,None,,,,,,,erfnpg,001,0,fr,2022-05-10_14h32.08.030,3-AFC_adaptive_staircase_mess,2022.1.1,35.54605131782861,
,,,,,6,0,6,0,0,0,0,0,,,,,,,,,,,,,[],[],10,left,8000,30,0.005740768107484416,0,0,-1,10,733.0914251098409,None,733.0632584998384,733.3724712999538,None,None,None,None,left,1,0.5691704999189824,733.0958185999189,None,None,None,right,19.59312289999798,712.9844122999348,None,712.9844122999348,None,erfnpg,001,0,fr,2022-05-10_14h32.08.030,3-AFC_adaptive_staircase_mess,2022.1.1,35.54605131782861,
,,,,,6,0,6,0,1,0,1,0,,,,,,,,,,,,,,,,right,8000,30,0.005740768107484416,0,0,-1,10,737.2151468100026,737.433333999943,735.1748048998415,735.4834898000117,736.1554799999576,736.4784712998662,737.1575547999237,737.4604456999805,right,1,2.268431300064549,735.2037680000067,None,None,None,,,,,,,erfnpg,001,0,fr,2022-05-10_14h32.08.030,3-AFC_adaptive_staircase_mess,2022.1.1,35.54605131782861,
,,,,,6,0,6,0,2,0,2,0,,,,,,,,,,,,,,,,right,8000,10,0.0005740768107484417,-1,0,-1,-10,741.0202213099226,None,738.9541660000104,739.277378999861,739.9767862998415,740.3022490998264,740.9637980998959,741.2819728998002,right,1,2.4100168000441045,739.0136636998504,None,None,None,,,,,,,erfnpg,001,0,fr,2022-05-10_14h32.08.030,3-AFC_adaptive_staircase_mess,2022.1.1,35.54605131782861,
,,,,,6,0,6,0,3,0,3,0,,,,,,,,,,,,,,,,up,8000,10,0.0005740768107484417,-1,0,-1,-10,743.9355780099984,744.1512358000036,742.9062734998297,743.2089399998076,743.8748178000096,744.1823309999891,None,None,up,1,1.4793231000658125,742.9365568999201,None,None,None,,,,,,,erfnpg,001,0,fr,2022-05-10_14h32.08.030,3-AFC_adaptive_staircase_mess,2022.1.1,35.54605131782861,
,,,,,6,0,6,0,4,0,4,0,,,,,,,,,,,,,,,,right,8000,0,0.0001815390273850507,-1,0,-1,-10,747.975857109949,748.1938680999447,745.9164386999328,746.239853899926,746.933209199924,747.2536879999097,747.919107099995,748.2206969999243,right,1,2.2508895001374185,745.9744076998904,None,None,None,,,,,,,erfnpg,001,0,fr,2022-05-10_14h32.08.030,3-AFC_adaptive_staircase_mess,2022.1.1,35.54605131782861,
,,,,,6,0,6,0,5,0,5,0,,,,,,,,,,,,,,,,up,8000,0,0.0001815390273850507,-1,0,-1,-10,750.770021510031,750.9767419998534,749.7215970999096,750.0466775000095,750.7418549000286,751.0621972000226,None,None,up,1,1.517462900141254,749.7788437998388,None,None,None,,,,,,,erfnpg,001,0,fr,2022-05-10_14h32.08.030,3-AFC_adaptive_staircase_mess,2022.1.1,35.54605131782861,
,,,,,6,0,6,0,6,0,6,0,,,,,,,,,,,,,,,,right,8000,-10,5.740768107484415e-05,-1,0,-1,-10,754.8553053098265,755.068701799959,752.7934339998756,753.117356600007,753.8103885999881,754.1327549999114,754.7975796998944,755.0959318999667,right,1,2.5433403998613358,752.849996099947,None,755.3576575999614,None,,,,,,,erfnpg,001,0,fr,2022-05-10_14h32.08.030,3-AFC_adaptive_staircase_mess,2022.1.1,35.54605131782861,
,,,,,6,0,6,0,7,0,7,0,,,,,,,,,,,,,,,,right,8000,-10,5.740768107484415e-05,-1,0,-1,-10,758.9658391098026,759.1747500998899,756.8978434999008,757.21894039982,757.9171521998942,758.2424490998965,758.9091359998565,759.2300724999513,right,1,2.581440400099382,756.9552525000181,None,759.4629245998804,None,,,,,,,erfnpg,001,0,fr,2022-05-10_14h32.08.030,3-AFC_adaptive_staircase_mess,2022.1.1,35.54605131782861,
,,,,,6,0,6,0,8,0,8,0,,,,,,,,,,,,,,,,right,8000,-20,1.815390273850507e-05,-1,0,-1,-10,763.1056888098362,763.3166873999871,761.0319558999036,761.3592943998519,762.0590837998316,762.3810388999991,763.0471220999025,763.3715416998602,left,0,2.6356401999946684,761.0925743000116,None,763.6044506998733,None,,,,,,,erfnpg,001,0,fr,2022-05-10_14h32.08.030,3-AFC_adaptive_staircase_mess,2022.1.1,35.54605131782861,
,,,,,6,0,6,0,9,0,9,0,,,,,,,,,,,,,,,,right,8000,-15,3.228271145173278e-05,1,1,1,5,767.2450785098597,767.4636857998557,765.1798006999306,765.500628199894,766.1964548998512,766.5192594998516,767.1849127998576,767.491799299838,left,0,3.145970599958673,765.2385825999081,None,767.7539901998825,None,,,,,,,erfnpg,001,0,fr,2022-05-10_14h32.08.030,3-AFC_adaptive_staircase_mess,2022.1.1,35.54605131782861,
,,,,,6,0,6,0,10,0,10,0,,,,,,,,,,,,,,,,right,8000,-10,5.740768107484415e-05,1,1,1,5,771.9271172098349,772.1475559999235,769.8821095998865,770.2022849998903,770.8710417998955,771.1716298998799,771.8989505998325,772.2071183999069,right,1,2.894429799867794,769.9379707998596,None,772.4403721999843,None,,,,,,,erfnpg,001,0,fr,2022-05-10_14h32.08.030,3-AFC_adaptive_staircase_mess,2022.1.1,35.54605131782861,
,,,,,6,0,6,0,11,0,11,0,,,,,,,,,,,,,,,,right,8000,-10,5.740768107484415e-05,1,1,1,5,776.3660692099481,776.5874544000253,774.3209489998408,774.6422829998191,775.3146728998981,775.6375002998393,776.3379025999457,776.6468064999208,right,1,3.7829588998574764,774.3781951998826,None,776.8792748998385,None,,,,,,,erfnpg,001,0,fr,2022-05-10_14h32.08.030,3-AFC_adaptive_staircase_mess,2022.1.1,35.54605131782861,
,,,,,6,0,6,0,12,0,12,0,,,,,,,,,,,,,,,,right,8000,-20,1.815390273850507e-05,-1,2,-1,-5.0,781.7031583098694,781.9167745998129,779.6547452998348,779.9760894000065,780.646770699881,780.975930799963,781.674991699867,782.0004093998577,left,0,4.721659400034696,779.7111290998291,None,782.2090421998873,None,,,,,,,erfnpg,001,0,fr,2022-05-10_14h32.08.030,3-AFC_adaptive_staircase_mess,2022.1.1,35.54605131782861,
,,,,,6,0,6,0,13,0,13,0,,,,,,,,,,,,,,,,left,8000,-17.5,2.420861837920497e-05,1,3,1,2.5,785.9660083099268,786.1762637998909,785.9070166000165,786.2317788000219,786.932323299814,787.2553653998766,787.9293755998369,788.2520707999356,up,0,3.2979680001735687,785.966193899978,None,788.454610100016,None,,,,,,,erfnpg,001,0,fr,2022-05-10_14h32.08.030,3-AFC_adaptive_staircase_mess,2022.1.1,35.54605131782861,
,,,,,6,0,6,0,14,0,14,0,,,,,,,,,,,,,,,,left,8000,-15.0,3.228271145173278e-05,1,3,1,2.5,790.824064309895,None,790.767029899871,791.0722427999135,791.7676475998014,792.0934611000121,792.7596630998887,793.0614962999243,right,0,5.4161440001334995,790.8237018999644,None,793.326929599978,None,,,,,,,erfnpg,001,0,fr,2022-05-10_14h32.08.030,3-AFC_adaptive_staircase_mess,2022.1.1,35.54605131782861,
,,,,,6,0,6,0,15,0,15,0,,,,,,,,,,,,,,,,up,8000,-12.5,4.304968760923004e-05,1,3,1,2.5,798.7894787098746,799.010202099802,797.7245618000161,798.0283929000143,798.7303869999014,799.0416969999205,799.740766099887,800.0479150998872,right,0,4.362486799946055,797.7828314998187,None,800.2802026998252,None,,,,,,,erfnpg,001,0,fr,2022-05-10_14h32.08.030,3-AFC_adaptive_staircase_mess,2022.1.1,35.54605131782861,
,,,,,6,0,6,0,16,0,16,0,,,,,,,,,,,,,,,,left,8000,-10.0,5.740768107484415e-05,1,3,1,2.5,803.7097281098365,803.9246427998878,803.6553011999931,803.9804968999233,804.6455311998725,804.9686376999598,805.6674334998243,805.9888414999004,left,1,3.489970700116828,803.711021799827,None,806.1966572999954,None,,,,,,,erfnpg,001,0,fr,2022-05-10_14h32.08.030,3-AFC_adaptive_staircase_mess,2022.1.1,35.54605131782861,
,,,,,6,0,6,0,17,0,17,0,,,,,,,,,,,,,,,,left,8000,-10.0,5.740768107484415e-05,1,3,1,2.5,808.7247643100097,808.9538010999095,808.6688888999633,808.9852994999383,809.6828375000041,809.9849769999273,810.6841753998306,810.9931298999581,up,0,4.474075800040737,808.7257921998389,None,811.2267185000237,None,,,,,,,erfnpg,001,0,fr,2022-05-10_14h32.08.030,3-AFC_adaptive_staircase_mess,2022.1.1,35.54605131782861,
,,,,,6,0,6,0,18,0,18,0,,,,,,,,,,,,,,,,left,8000,-7.5,7.655437308410152e-05,1,3,1,2.5,814.7581026099622,None,814.7001949998084,815.0069065999705,815.7106486998964,None,None,None,left,1,0.9377500999253243,814.7594063000288,None,None,None,,,,,,,erfnpg,001,0,fr,2022-05-10_14h32.08.030,3-AFC_adaptive_staircase_mess,2022.1.1,35.54605131782861,
,,,,,6,0,6,0,19,0,19,0,,,,,,,,,,,,,,,,left,8000,-7.5,7.655437308410152e-05,1,3,1,2.5,817.2402164099738,817.4617492000107,817.181275599869,817.4929980998859,818.1947308999952,818.4939270999748,819.1983284000307,819.5195497998502,right,0,3.4970850001554936,817.2397719998844,None,819.7243359999266,None,,,,,,,erfnpg,001,0,fr,2022-05-10_14h32.08.030,3-AFC_adaptive_staircase_mess,2022.1.1,35.54605131782861,
,,,,,6,0,6,0,20,0,20,0,,,,,,,,,,,,,,,,left,8000,-5.0,0.00010208689723347648,1,3,1,2.5,822.2804810099303,822.501656399807,822.2214573998936,822.5331246999558,None,None,None,None,left,1,0.6134813001845032,822.282852599863,None,None,None,,,,,,,erfnpg,001,0,fr,2022-05-10_14h32.08.030,3-AFC_adaptive_staircase_mess,2022.1.1,35.54605131782861,
,,,,,6,0,6,0,21,0,21,0,,,,,,,,,,,,,,,,up,8000,-5.0,0.00010208689723347648,1,3,1,2.5,825.4347280098125,None,824.3739290998783,824.700776899932,825.3769835999701,825.6864387998357,None,None,up,1,1.6346259999554604,824.4297171998769,None,None,None,,,,,,,erfnpg,001,0,fr,2022-05-10_14h32.08.030,3-AFC_adaptive_staircase_mess,2022.1.1,35.54605131782861,
,,,,,6,0,6,0,22,0,22,0,,,,,,,,,,,,,,,,up,8000,-10.0,5.740768107484415e-05,-1,4,-1,-5.0,828.6174811098724,828.8407782998402,827.5531997999642,827.8783396999352,828.5595298998524,828.8722061000299,None,None,up,1,1.6527943999972194,827.6116944998503,None,None,None,,,,,,,erfnpg,001,0,fr,2022-05-10_14h32.08.030,3-AFC_adaptive_staircase_mess,2022.1.1,35.54605131782861,
,,,,,6,0,6,0,23,0,23,0,,,,,,,,,,,,,,,,up,8000,-10.0,5.740768107484415e-05,-1,4,-1,-5.0,831.7901129098143,832.0107012998778,830.7501246000174,831.0523826999124,831.7619462998118,832.0708915998694,None,None,up,1,1.8345000999979675,830.8059250998776,None,None,None,,,,,,,erfnpg,001,0,fr,2022-05-10_14h32.08.030,3-AFC_adaptive_staircase_mess,2022.1.1,35.54605131782861,
,,,,,6,0,6,0,24,0,24,0,,,,,,,,,,,,,,,,right,8000,-15.0,3.228271145173278e-05,-1,4,-1,-5.0,836.1950448099058,836.4127928998787,834.1458175999578,834.4523765998892,835.1567199998535,835.4565735999495,836.1347626999486,836.4445342998952,right,1,3.7498422998469323,834.2033363999799,None,836.6848324998282,None,,,,,,,erfnpg,001,0,fr,2022-05-10_14h32.08.030,3-AFC_adaptive_staircase_mess,2022.1.1,35.54605131782861,
,,,,,6,0,6,0,25,0,25,0,,,,,,,,,,,,,,,,right,8000,-15.0,3.228271145173278e-05,-1,4,-1,-5.0,841.5052217100281,None,839.4380069999024,839.7737051998265,840.4349836998153,840.762384200003,841.4444057999644,841.7623292999342,right,1,3.6331118000671268,839.5026659998111,None,841.9988817998674,None,,,,,,,erfnpg,001,0,fr,2022-05-10_14h32.08.030,3-AFC_adaptive_staircase_mess,2022.1.1,35.54605131782861,
,,,,,6,0,6,0,26,0,26,0,,,,,,,,,,,,,,,,left,8000,-20.0,1.815390273850507e-05,-1,4,-1,-5.0,844.6704134100116,844.8891462997999,844.6096733999439,844.9205713998526,845.6010149000213,845.9008543998934,846.6108186999336,846.9442855999805,right,0,3.215562100056559,844.6722406998742,None,847.1497533998918,None,,,,,,,erfnpg,001,0,fr,2022-05-10_14h32.08.030,3-AFC_adaptive_staircase_mess,2022.1.1,35.54605131782861,
,,,,,6,0,6,0,27,0,27,0,,,,,,,,,,,,,,,,up,8000,-17.5,2.420861837920497e-05,1,5,1,2.5,850.4457077099476,None,849.3954582998995,849.7054912999738,850.3853924998548,850.7008169000037,851.3857601999771,851.6941529000178,right,0,3.172083899844438,849.452539099846,None,851.9343462998513,None,,,,,,,erfnpg,001,0,fr,2022-05-10_14h32.08.030,3-AFC_adaptive_staircase_mess,2022.1.1,35.54605131782861,
,,,,,6,0,6,0,28,0,28,0,,,,,,,,,,,,,,,,up,8000,-15.0,3.228271145173278e-05,1,5,1,2.5,855.1586035098414,None,854.121442399919,854.4228303998243,855.1010997998528,855.4231563999783,856.1114282999188,856.4168697998393,up,1,3.143416600069031,854.1533929000143,None,856.6561223999597,None,,,,,,,erfnpg,001,0,fr,2022-05-10_14h32.08.030,3-AFC_adaptive_staircase_mess,2022.1.1,35.54605131782861,
,,,,,6,0,6,0,29,0,29,0,,,,,,,,,,,,,,,,up,8000,-15.0,3.228271145173278e-05,1,5,1,2.5,859.813111009961,860.0383429999929,858.7895905999467,859.1234720000066,859.7849443999585,860.0995587999932,860.7940509999171,861.1263512999285,up,1,2.5734290999826044,858.8198369999882,None,861.3330368997995,None,,,,,,,erfnpg,001,0,fr,2022-05-10_14h32.08.030,3-AFC_adaptive_staircase_mess,2022.1.1,35.54605131782861,
,,,,,6,0,6,0,30,0,30,0,,,,,,,,,,,,,,,,left,8000,-20.0,1.815390273850507e-05,-1,6,-1,-5.0,862.9075659098569,None,862.8793992998544,863.2007370998617,863.8649228999857,864.1646376999561,864.8722540999297,865.1789194999728,up,0,3.155623500002548,862.9092061999254,None,865.4259087999817,None,,,,,,,erfnpg,001,0,fr,2022-05-10_14h32.08.030,3-AFC_adaptive_staircase_mess,2022.1.1,35.54605131782861,
,,,,,7,0,7,0,0,0,0,0,,,,,,,,,,,,,[],[],10,right,750,30,0.0012851978913844323,0,0,-1,10,902.8397993100341,None,900.7839209998492,901.1055246000178,901.7976066998672,902.1333200000226,902.7835541998502,903.0946104999166,right,1,2.4544657000806183,900.8415127999615,None,903.329012400005,None,right,33.17882980010472,867.1408224999905,None,867.1408224999905,None,erfnpg,001,0,fr,2022-05-10_14h32.08.030,3-AFC_adaptive_staircase_mess,2022.1.1,35.54605131782861,
,,,,,7,0,7,0,1,0,1,0,,,,,,,,,,,,,,,,left,750,30,0.0012851978913844323,0,0,-1,10,904.8641415098216,905.0826842999086,904.8063399000093,905.1111903998535,None,None,None,None,left,1,0.44520179997198284,904.8676214998122,None,None,None,,,,,,,erfnpg,001,0,fr,2022-05-10_14h32.08.030,3-AFC_adaptive_staircase_mess,2022.1.1,35.54605131782861,
,,,,,7,0,7,0,2,0,2,0,,,,,,,,,,,,,,,,left,750,10,0.00012851978913844324,-1,0,-1,-10,906.825430309819,None,906.764984499896,907.0707843999844,None,None,None,None,left,1,0.48810459999367595,906.8239266998135,None,None,None,,,,,,,erfnpg,001,0,fr,2022-05-10_14h32.08.030,3-AFC_adaptive_staircase_mess,2022.1.1,35.54605131782861,
,,,,,7,0,7,0,3,0,3,0,,,,,,,,,,,,,,,,left,750,10,0.00012851978913844324,-1,0,-1,-10,908.8637336098589,None,908.8052592999302,909.1158596999012,None,None,None,None,left,1,0.3976416001096368,908.8676386999432,None,None,None,,,,,,,erfnpg,001,0,fr,2022-05-10_14h32.08.030,3-AFC_adaptive_staircase_mess,2022.1.1,35.54605131782861,
,,,,,7,0,7,0,4,0,4,0,,,,,,,,,,,,,,,,right,750,0,4.064152580820497e-05,-1,0,-1,-10,912.8152943099383,913.0297548000235,910.7704186998308,911.0754666000139,911.7820206999313,912.110021200031,912.7871276999358,913.0875583998859,right,1,2.372302999952808,910.8287656998727,None,None,None,,,,,,,erfnpg,001,0,fr,2022-05-10_14h32.08.030,3-AFC_adaptive_staircase_mess,2022.1.1,35.54605131782861,
,,,,,7,0,7,0,5,0,5,0,,,,,,,,,,,,,,,,up,750,0,4.064152580820497e-05,-1,0,-1,-10,915.7363044099882,915.960638999939,914.677033299813,915.00703839981,915.6779135998804,915.9892621999606,None,None,up,1,1.7121425999794155,914.7359025999904,None,None,None,,,,,,,erfnpg,001,0,fr,2022-05-10_14h32.08.030,3-AFC_adaptive_staircase_mess,2022.1.1,35.54605131782861,
,,,,,7,0,7,0,6,0,6,0,,,,,,,,,,,,,,,,up,750,-10,1.2851978913844322e-05,-1,0,-1,-10,918.9699109098408,919.1923919999972,917.9139823999722,918.2364606999326,918.9156921999529,919.2227990999818,919.9282568998169,920.2497462998144,up,1,2.2864349998999387,917.9699216999579,None,None,None,,,,,,,erfnpg,001,0,fr,2022-05-10_14h32.08.030,3-AFC_adaptive_staircase_mess,2022.1.1,35.54605131782861,
,,,,,7,0,7,0,7,0,7,0,,,,,,,,,,,,,,,,up,750,-10,1.2851978913844322e-05,-1,0,-1,-10,922.7811899098567,923.000730099855,921.7395835998468,922.041555600008,922.7230638000183,923.0290897998493,923.7499553998932,924.0741147999652,up,1,2.4844906001817435,921.804610399995,None,924.2835272999946,None,,,,,,,erfnpg,001,0,fr,2022-05-10_14h32.08.030,3-AFC_adaptive_staircase_mess,2022.1.1,35.54605131782861,
,,,,,7,0,7,0,8,0,8,0,,,,,,,,,,,,,,,,up,750,-20,4.0641525808204974e-06,-1,0,-1,-10,926.8095214098691,927.0350632998161,925.7668812999036,926.0855781999417,926.7813547998667,927.0974179999903,927.762593299849,928.073789899936,right,0,2.4664640999399126,925.8221076999325,None,928.3181708098389,None,,,,,,,erfnpg,001,0,fr,2022-05-10_14h32.08.030,3-AFC_adaptive_staircase_mess,2022.1.1,35.54605131782861,
,,,,,7,0,7,0,9,0,9,0,,,,,,,,,,,,,,,,left,750,-15,7.22719885372964e-06,1,1,1,5,929.830048209941,None,929.7700781999156,930.0793217997998,930.7791981999762,931.1000971000176,931.7723478998523,932.0997412998695,right,0,2.984482300002128,929.8322260000277,None,932.3365211999044,None,,,,,,,erfnpg,001,0,fr,2022-05-10_14h32.08.030,3-AFC_adaptive_staircase_mess,2022.1.1,35.54605131782861,
,,,,,7,0,7,0,10,0,10,0,,,,,,,,,,,,,,,,right,750,-10,1.2851978913844322e-05,1,1,1,5,936.3827836098615,None,934.324323099805,934.6528355998453,935.320549099939,935.6492816999089,936.3282053000294,None,left,0,2.205684599932283,934.3864539000206,None,None,None,,,,,,,erfnpg,001,0,fr,2022-05-10_14h32.08.030,3-AFC_adaptive_staircase_mess,2022.1.1,35.54605131782861,
,,,,,7,0,7,0,11,0,11,0,,,,,,,,,,,,,,,,up,750,-5,2.285440948074376e-05,1,1,1,5,939.1233516099862,None,938.0715338999871,938.3989088998642,939.0640358999372,939.3764360998757,940.075229199836,940.400790899992,up,1,2.8145453999750316,938.1293863998726,None,940.6348289998714,None,,,,,,,erfnpg,001,0,fr,2022-05-10_14h32.08.030,3-AFC_adaptive_staircase_mess,2022.1.1,35.54605131782861,
,,,,,7,0,7,0,12,0,12,0,,,,,,,,,,,,,,,,left,750,-5,2.285440948074376e-05,1,1,1,5,942.4595669100061,942.6786160999909,942.4005581999663,942.7101401998661,943.4063982998487,943.7089238998014,944.4079483000096,944.7248982000165,left,1,2.40236880001612,942.4618502999656,None,None,None,,,,,,,erfnpg,001,0,fr,2022-05-10_14h32.08.030,3-AFC_adaptive_staircase_mess,2022.1.1,35.54605131782861,
,,,,,7,0,7,0,13,0,13,0,,,,,,,,,,,,,,,,left,750,-15,7.22719885372964e-06,-1,2,-1,-5.0,946.4178276098799,None,946.3697678998578,946.6733430998866,947.3780096999835,947.6954451999627,948.3761660000309,948.679679099936,left,1,2.864827699959278,946.4318589000031,None,948.9106379998848,None,,,,,,,erfnpg,001,0,fr,2022-05-10_14h32.08.030,3-AFC_adaptive_staircase_mess,2022.1.1,35.54605131782861,
,,,,,7,0,7,0,14,0,14,0,,,,,,,,,,,,,,,,left,750,-15,7.22719885372964e-06,-1,2,-1,-5.0,950.8267245098948,951.0459797999356,950.7690667998977,951.0736683998257,951.7619044999592,952.0873062999453,952.7853251998313,953.0989518999122,left,1,3.7673797998577356,950.8253120000008,None,953.3122433999088,None,,,,,,,erfnpg,001,0,fr,2022-05-10_14h32.08.030,3-AFC_adaptive_staircase_mess,2022.1.1,35.54605131782861,
,,,,,7,0,7,0,15,0,15,0,,,,,,,,,,,,,,,,right,750,-20.0,4.0641525808204974e-06,-1,2,-1,-5.0,958.1518590098246,958.3721982999705,956.0848515999969,956.4159816999454,957.1010821999516,957.4054482998326,958.0937512998935,958.3986728999298,left,0,2.9216886998619884,956.1347832998727,None,958.6580299998168,None,,,,,,,erfnpg,001,0,fr,2022-05-10_14h32.08.030,3-AFC_adaptive_staircase_mess,2022.1.1,35.54605131782861,
,,,,,7,0,7,0,16,0,16,0,,,,,,,,,,,,,,,,left,750,-17.5,5.419634570106019e-06,1,3,1,2.5,960.6152365100104,960.8392067998648,960.5590042998083,960.8663446998689,961.5600811999757,961.8872616998851,962.5565463998355,962.8575294998009,left,1,3.5681300999131054,960.6082231998444,None,963.1230150000192,None,,,,,,,erfnpg,001,0,fr,2022-05-10_14h32.08.030,3-AFC_adaptive_staircase_mess,2022.1.1,35.54605131782861,
,,,,,7,0,7,0,17,0,17,0,,,,,,,,,,,,,,,,up,750,-17.5,5.419634570106019e-06,1,3,1,2.5,966.710840909928,None,965.6396236999426,965.9654188000131,966.6548305000179,966.9741286998615,967.6690908998717,967.9923342999537,up,1,2.718739200150594,965.6975853999611,None,968.2004860998131,None,,,,,,,erfnpg,001,0,fr,2022-05-10_14h32.08.030,3-AFC_adaptive_staircase_mess,2022.1.1,35.54605131782861,
,,,,,7,0,7,0,18,0,18,0,,,,,,,,,,,,,,,,left,750,-22.5,3.0476844862008467e-06,-1,4,-1,-5.0,969.9665229098871,970.1830099998042,969.9095283998176,970.2107184999622,970.9058864999097,971.2297206998337,971.919510099804,972.2540968998801,right,0,2.9777993001043797,969.967376699904,None,972.4896003999747,None,,,,,,,erfnpg,001,0,fr,2022-05-10_14h32.08.030,3-AFC_adaptive_staircase_mess,2022.1.1,35.54605131782861,
,,,,,7,0,7,0,19,0,19,0,,,,,,,,,,,,,,,,right,750,-20.0,4.0641525808204974e-06,1,5,1,2.5,976.511347509874,976.7278501999099,974.4451898999978,974.7669845998753,975.4554301998578,975.7915982999839,976.4537551000249,976.7530886000022,right,1,3.321019400143996,974.5028007999063,None,977.011742600007,None,,,,,,,erfnpg,001,0,fr,2022-05-10_14h32.08.030,3-AFC_adaptive_staircase_mess,2022.1.1,35.54605131782861,
,,,,,7,0,7,0,20,0,20,0,,,,,,,,,,,,,,,,left,750,-20.0,4.0641525808204974e-06,1,5,1,2.5,979.3789615099784,None,979.3218861999922,979.6238251999021,980.3204394998029,980.6432278000284,981.3258315999992,981.6301736999303,right,0,3.484586799982935,979.3805966998916,None,981.8938547999132,None,,,,,,,erfnpg,001,0,fr,2022-05-10_14h32.08.030,3-AFC_adaptive_staircase_mess,2022.1.1,35.54605131782861,
,,,,,7,0,7,0,21,0,21,0,,,,,,,,,,,,,,,,right,750,-17.5,5.419634570106019e-06,1,5,1,2.5,986.3840491098351,986.5993682998233,984.3319941000082,984.6560851000249,985.3342044998426,985.65683659981,986.3558824998327,986.6547133999411,up,0,3.3362501999363303,984.3928468998056,None,986.8901477998588,None,,,,,,,erfnpg,001,0,fr,2022-05-10_14h32.08.030,3-AFC_adaptive_staircase_mess,2022.1.1,35.54605131782861,
,,,,,7,0,7,0,22,0,22,0,,,,,,,,,,,,,,,,up,750,-15.0,7.22719885372964e-06,1,5,1,2.5,990.2787718099542,990.4981452999637,989.2282857999671,989.551032599993,990.2210827998351,990.5282926999498,991.2263332000002,991.5373660000041,right,0,3.432739899959415,989.2871471999679,None,991.772583700018,None,,,,,,,erfnpg,001,0,fr,2022-05-10_14h32.08.030,3-AFC_adaptive_staircase_mess,2022.1.1,35.54605131782861,
,,,,,7,0,7,0,23,0,23,0,,,,,,,,,,,,,,,,left,750,-12.5,9.637624565954684e-06,1,5,1,2.5,994.2352847100235,994.4531958999578,994.1763371999841,994.4799699999858,995.1995357000269,995.5245624999516,996.1910093999468,996.5184094000142,up,0,2.646229899954051,994.235057399841,None,996.7522562998347,None,,,,,,,erfnpg,001,0,fr,2022-05-10_14h32.08.030,3-AFC_adaptive_staircase_mess,2022.1.1,35.54605131782861,
,,,,,7,0,7,0,24,0,24,0,,,,,,,,,,,,,,,,left,750,-10.0,1.2851978913844322e-05,1,5,1,2.5,998.4322585099842,998.6474195998162,998.3753027999774,998.6740335999057,999.3674210000318,999.6799834999256,1000.3941033999436,1000.7172277998179,up,0,3.599079799838364,998.4333707999904,None,1000.95008949982,None,,,,,,,erfnpg,001,0,fr,2022-05-10_14h32.08.030,3-AFC_adaptive_staircase_mess,2022.1.1,35.54605131782861,
,,,,,7,0,7,0,25,0,25,0,,,,,,,,,,,,,,,,left,750,-7.5,1.7138389327322525e-05,1,5,1,2.5,1003.5608886098023,1003.7845530998893,1003.5048590998631,1003.812437799992,1004.5094878999516,1004.8322381998878,1005.5014312998392,1005.818304099841,right,0,3.891877100104466,1003.5647770999931,None,1006.0537022999488,None,,,,,,,erfnpg,001,0,fr,2022-05-10_14h32.08.030,3-AFC_adaptive_staircase_mess,2022.1.1,35.54605131782861,
,,,,,7,0,7,0,26,0,26,0,,,,,,,,,,,,,,,,up,750,-5.0,2.285440948074376e-05,1,5,1,2.5,1009.9921758099924,1010.2089231000282,1008.9450209999923,1009.2566336998716,1009.96400919999,1010.2646607998759,1010.960306199966,1011.2805062998086,up,1,2.886008200002834,1009.00262439996,None,1011.5152215999551,None,,,,,,,erfnpg,001,0,fr,2022-05-10_14h32.08.030,3-AFC_adaptive_staircase_mess,2022.1.1,35.54605131782861,
,,,,,7,0,7,0,27,0,27,0,,,,,,,,,,,,,,,,right,750,-5.0,2.285440948074376e-05,1,5,1,2.5,1015.4452176098246,None,1013.3840314999688,1013.7064604999032,1014.4034775998443,1014.7242242000066,1015.3876608000137,1015.6931629998144,right,1,2.8952317000366747,1013.4408763998654,None,1015.953510500025,None,,,,,,,erfnpg,001,0,fr,2022-05-10_14h32.08.030,3-AFC_adaptive_staircase_mess,2022.1.1,35.54605131782861,
,,,,,7,0,7,0,28,0,28,0,,,,,,,,,,,,,,,,up,750,-10.0,1.2851978913844322e-05,-1,6,-1,-5.0,1018.8688090098556,1019.0771605998743,1017.8254338998813,1018.1456635999493,1018.8406423998531,1019.1657195999287,1019.8344029998407,1020.1661209999584,left,0,3.829680599970743,1017.8828797999304,None,1020.3829536000267,None,,,,,,,erfnpg,001,0,fr,2022-05-10_14h32.08.030,3-AFC_adaptive_staircase_mess,2022.1.1,35.54605131782861,
,,,,,8,0,8,0,0,0,0,0,,,,,,,,,,,,,[],[],10,left,500,30,0.002259279721874612,0,0,-1,10,1026.72517010984,1026.942328499863,1026.6671728999354,1026.97000449989,None,None,None,None,left,1,0.5546232999768108,1026.7252063998021,None,None,None,left,3.419117599958554,1022.7884579999372,None,1022.7884579999372,None,erfnpg,001,0,fr,2022-05-10_14h32.08.030,3-AFC_adaptive_staircase_mess,2022.1.1,35.54605131782861,
,,,,,8,0,8,0,1,0,1,0,,,,,,,,,,,,,,,,left,500,30,0.002259279721874612,0,0,-1,10,1028.806065709982,1029.0344632000197,1028.7778990999795,1029.097425499931,None,None,None,None,left,1,0.44171479996293783,1028.8065531998873,None,None,None,,,,,,,erfnpg,001,0,fr,2022-05-10_14h32.08.030,3-AFC_adaptive_staircase_mess,2022.1.1,35.54605131782861,
,,,,,8,0,8,0,2,0,2,0,,,,,,,,,,,,,,,,right,500,10,0.0002259279721874612,-1,0,-1,-10,1032.7928706099744,1033.0156904999167,1030.7252092999406,1031.0392206998076,1031.7314114999026,1032.0678866999224,1032.7336051999591,1033.0448793999385,right,1,2.289075099863112,1030.7827678998,None,None,None,,,,,,,erfnpg,001,0,fr,2022-05-10_14h32.08.030,3-AFC_adaptive_staircase_mess,2022.1.1,35.54605131782861,
,,,,,8,0,8,0,3,0,3,0,,,,,,,,,,,,,,,,right,500,10,0.0002259279721874612,-1,0,-1,-10,1036.6098943098448,None,1034.539502199972,1034.8666779999621,1035.5448332999367,1035.8805767998565,1036.5503986999393,1036.8706600998994,right,1,2.3054033000953496,1034.6071670998354,None,None,None,,,,,,,erfnpg,001,0,fr,2022-05-10_14h32.08.030,3-AFC_adaptive_staircase_mess,2022.1.1,35.54605131782861,
,,,,,8,0,8,0,4,0,4,0,,,,,,,,,,,,,,,,right,500,0,7.144469792555515e-05,-1,0,-1,-10,1040.4413944098167,None,1038.390583399916,1038.7160791999195,1039.3853235999122,1039.7113346999977,1040.3842598998453,1040.6881291000172,right,1,2.4629361999686807,1038.4484533998184,None,1040.9561172099318,None,,,,,,,erfnpg,001,0,fr,2022-05-10_14h32.08.030,3-AFC_adaptive_staircase_mess,2022.1.1,35.54605131782861,
,,,,,8,0,8,0,5,0,5,0,,,,,,,,,,,,,,,,left,500,0,7.144469792555515e-05,-1,0,-1,-10,1042.4711325098294,None,1042.409476999892,1042.7394625998568,1043.426890200004,1043.741156899836,1044.4139476998243,1044.7482339998242,right,0,4.995795299997553,1042.4768413999118,None,1044.9832277998794,None,,,,,,,erfnpg,001,0,fr,2022-05-10_14h32.08.030,3-AFC_adaptive_staircase_mess,2022.1.1,35.54605131782861,
,,,,,8,0,8,0,6,0,6,0,,,,,,,,,,,,,,,,up,500,5,0.00012704863527746526,1,1,1,5,1050.0082126098685,1050.2290721000172,1048.94026329997,1049.2605455999728,1049.9477611999027,1050.2564991000108,1050.9562814999372,None,up,1,2.2009159000590444,1048.9991656998172,None,None,None,,,,,,,erfnpg,001,0,fr,2022-05-10_14h32.08.030,3-AFC_adaptive_staircase_mess,2022.1.1,35.54605131782861,
,,,,,8,0,8,0,7,0,7,0,,,,,,,,,,,,,,,,up,500,5,0.00012704863527746526,1,1,1,5,1053.7287413100246,1053.9497779998928,1052.6823199999053,1053.0073108000215,1053.7005747000221,1054.0047302998137,None,None,up,1,1.7678121000062674,1052.7437628000043,None,None,None,,,,,,,erfnpg,001,0,fr,2022-05-10_14h32.08.030,3-AFC_adaptive_staircase_mess,2022.1.1,35.54605131782861,
,,,,,8,0,8,0,8,0,8,0,,,,,,,,,,,,,,,,up,500,-5,4.017630610928089e-05,-1,2,-1,-5.0,1057.036443409929,1057.2535037999041,1055.9928669999354,1056.2968552999664,1057.0082767999265,1057.3085963998456,1058.0079468998592,1058.3253436000086,up,1,3.7215274998452514,1056.054062699899,None,1058.559751899913,None,,,,,,,erfnpg,001,0,fr,2022-05-10_14h32.08.030,3-AFC_adaptive_staircase_mess,2022.1.1,35.54605131782861,
,,,,,8,0,8,0,9,0,9,0,,,,,,,,,,,,,,,,up,500,-5,4.017630610928089e-05,-1,2,-1,-5.0,1062.3097467098385,1062.5259106999729,1061.2585357998032,1061.5873737998772,1062.2538805999793,1062.5530065000057,1063.2772327999119,1063.6020686998963,left,0,3.7036747001111507,1061.3211590999272,None,1063.8071551998146,None,,,,,,,erfnpg,001,0,fr,2022-05-10_14h32.08.030,3-AFC_adaptive_staircase_mess,2022.1.1,35.54605131782861,
,,,,,8,0,8,0,10,0,10,0,,,,,,,,,,,,,,,,up,500,-2.5,5.357596526188033e-05,1,3,1,2.5,1067.5352754098828,1067.7531098998152,1066.5115534998477,1066.8342255998868,1067.5071087998804,1067.8087441998068,1068.5028657999355,None,up,1,2.179317699978128,1066.540337199811,None,None,None,,,,,,,erfnpg,001,0,fr,2022-05-10_14h32.08.030,3-AFC_adaptive_staircase_mess,2022.1.1,35.54605131782861,
,,,,,8,0,8,0,11,0,11,0,,,,,,,,,,,,,,,,left,500,-2.5,5.357596526188033e-05,1,3,1,2.5,1070.265086409822,None,1070.2043587998487,1070.515822699992,1071.2154731999617,1071.525511099957,1072.2231838000007,1072.5434965998866,up,0,3.826524500036612,1070.2696793000214,None,1072.7773916998412,None,,,,,,,erfnpg,001,0,fr,2022-05-10_14h32.08.030,3-AFC_adaptive_staircase_mess,2022.1.1,35.54605131782861,
,,,,,8,0,8,0,12,0,12,0,,,,,,,,,,,,,,,,left,500,0.0,7.144469792555515e-05,1,3,1,2.5,1075.6439737099688,1075.8610757999122,1075.5881403998937,1075.8884353998583,1076.583088599844,None,None,None,left,1,1.2203516999725252,1075.643753199838,None,None,None,,,,,,,erfnpg,001,0,fr,2022-05-10_14h32.08.030,3-AFC_adaptive_staircase_mess,2022.1.1,35.54605131782861,
,,,,,8,0,8,0,13,0,13,0,,,,,,,,,,,,,,,,right,500,0.0,7.144469792555515e-05,1,3,1,2.5,1080.4076472098939,None,1078.3424048000015,1078.6742190998048,1079.3409426999278,1079.6644270999823,1080.3460055999458,1080.6557918000035,right,1,2.6359333000145853,1078.4051188000012,None,1080.8894986999221,None,,,,,,,erfnpg,001,0,fr,2022-05-10_14h32.08.030,3-AFC_adaptive_staircase_mess,2022.1.1,35.54605131782861,
,,,,,8,0,8,0,14,0,14,0,,,,,,,,,,,,,,,,left,500,-5.0,4.017630610928089e-05,-1,4,-1,-5.0,1082.5588936099782,1082.7718705998268,1082.5019375998527,1082.8272590998095,1083.5033566998318,1083.8234243998304,1084.5169048998505,1084.816827399889,left,1,5.472869700053707,1082.5602065999992,None,1085.0501418998465,None,,,,,,,erfnpg,001,0,fr,2022-05-10_14h32.08.030,3-AFC_adaptive_staircase_mess,2022.1.1,35.54605131782861,
,,,,,8,0,8,0,15,0,15,0,,,,,,,,,,,,,,,,right,500,-5.0,4.017630610928089e-05,-1,4,-1,-5.0,1091.5765594099182,1091.8021821000148,1089.536203800002,1089.8561545999255,1090.5315395998769,1090.8541120998561,1091.5483927999157,1091.862558899913,right,1,3.2239500998985022,1089.592154999962,None,1092.0958845999558,None,,,,,,,erfnpg,001,0,fr,2022-05-10_14h32.08.030,3-AFC_adaptive_staircase_mess,2022.1.1,35.54605131782861,
,,,,,8,0,8,0,16,0,16,0,,,,,,,,,,,,,,,,left,500,-10.0,2.259279721874613e-05,-1,4,-1,-5.0,1094.3328286099247,1094.5515468998346,1094.3046619999222,1094.6059385000262,1095.3024505998474,1095.6150330000091,1096.3079226999544,1096.6286646998487,right,0,3.2344133001752198,1094.3335259999149,None,1096.8327938998118,None,,,,,,,erfnpg,001,0,fr,2022-05-10_14h32.08.030,3-AFC_adaptive_staircase_mess,2022.1.1,35.54605131782861,
,,,,,8,0,8,0,17,0,17,0,,,,,,,,,,,,,,,,up,500,-7.5,3.0127979303717903e-05,1,5,1,2.5,1100.1262112098746,None,1099.0755107998848,1099.4082223998848,1100.0650871000253,1100.3763484999072,1101.078294100007,1101.3997143998276,up,1,3.0922540999017656,1099.1319378998596,None,1101.6355605998542,None,,,,,,,erfnpg,001,0,fr,2022-05-10_14h32.08.030,3-AFC_adaptive_staircase_mess,2022.1.1,35.54605131782861,
,,,,,8,0,8,0,18,0,18,0,,,,,,,,,,,,,,,,left,500,-7.5,3.0127979303717903e-05,1,5,1,2.5,1103.7775447098072,None,1103.7186012999155,1104.043737999862,1104.7038958999328,1105.0412698998116,1105.7032015998848,1106.0101274999324,up,0,3.6125705998856574,1103.7803767998703,None,1106.275175599847,None,,,,,,,erfnpg,001,0,fr,2022-05-10_14h32.08.030,3-AFC_adaptive_staircase_mess,2022.1.1,35.54605131782861,
,,,,,8,0,8,0,19,0,19,0,,,,,,,,,,,,,,,,right,500,-5.0,4.017630610928089e-05,1,5,1,2.5,1110.9395860100165,1111.1614635000005,1108.8859128998592,1109.1898061998654,1109.8881349998992,1110.2091444998514,1110.882737299893,1111.1875000998843,right,1,3.5540521999355406,1108.942492699949,None,1111.4528651,None,,,,,,,erfnpg,001,0,fr,2022-05-10_14h32.08.030,3-AFC_adaptive_staircase_mess,2022.1.1,35.54605131782861,
,,,,,8,0,8,0,20,0,20,0,,,,,,,,,,,,,,,,left,500,-5.0,4.017630610928089e-05,1,5,1,2.5,1114.0310172098223,1114.2586293998174,1113.9754375999328,1114.290139599936,1114.9640611999203,1115.265984099824,1115.9752896998543,1116.2788324998692,left,1,2.3334025000222027,1114.0342402998358,None,None,None,,,,,,,erfnpg,001,0,fr,2022-05-10_14h32.08.030,3-AFC_adaptive_staircase_mess,2022.1.1,35.54605131782861,
,,,,,8,0,8,0,21,0,21,0,,,,,,,,,,,,,,,,right,500,-10.0,2.259279721874613e-05,-1,6,-1,-5.0,1119.911033509951,1120.1325343998615,1117.8718887998257,1118.1993495998904,1118.8825507999863,1119.2066026998218,1119.8828668999486,1120.1938202998135,left,0,2.485583199886605,1117.9307219998445,None,1120.4357035998255,None,,,,,,,erfnpg,001,0,fr,2022-05-10_14h32.08.030,3-AFC_adaptive_staircase_mess,2022.1.1,35.54605131782861,
,,,,,9,0,9,0,0,0,0,0,,,,,,,,,,,,,[],[],10,right,250,30,0.005296268625886445,0,0,-1,10,1205.4141668099444,1205.6323255999014,1203.362549699843,1203.6922673999798,1204.3593629999086,1204.6848332998343,1205.3562415000051,1205.660365599906,right,1,2.3544056999962777,1203.420858199941,None,None,None,right,81.40840559988283,1121.5033219999168,None,1121.5033219999168,None,erfnpg,001,0,fr,2022-05-10_14h32.08.030,3-AFC_adaptive_staircase_mess,2022.1.1,35.54605131782861,
,,,,,9,0,9,0,1,0,1,0,,,,,,,,,,,,,,,,up,250,30,0.005296268625886445,0,0,-1,10,1208.3369432098232,1208.5538139999844,1207.2782658999786,1207.606689499924,1208.2777326998767,1208.5862490998115,None,None,up,1,1.4767781000118703,1207.33915159991,None,None,None,,,,,,,erfnpg,001,0,fr,2022-05-10_14h32.08.030,3-AFC_adaptive_staircase_mess,2022.1.1,35.54605131782861,
,,,,,9,0,9,0,2,0,2,0,,,,,,,,,,,,,,,,left,250,10,0.0005296268625886444,-1,0,-1,-10,1210.3577000100165,None,1210.2993647998665,1210.6051168998238,None,None,None,None,left,1,0.553479100111872,1210.3590444999281,None,None,None,,,,,,,erfnpg,001,0,fr,2022-05-10_14h32.08.030,3-AFC_adaptive_staircase_mess,2022.1.1,35.54605131782861,
,,,,,9,0,9,0,3,0,3,0,,,,,,,,,,,,,,,,right,250,10,0.0005296268625886444,-1,0,-1,-10,1214.469883109862,None,1212.4122352998238,1212.7333789998665,1213.4022658998147,1213.7097646999173,1214.4091654999647,1214.722286999924,right,1,2.3810643998440355,1212.4671035998035,None,None,None,,,,,,,erfnpg,001,0,fr,2022-05-10_14h32.08.030,3-AFC_adaptive_staircase_mess,2022.1.1,35.54605131782861,
,,,,,9,0,9,0,4,0,4,0,,,,,,,,,,,,,,,,up,250,0,0.0001674827195789138,-1,0,-1,-10,1217.376358309947,1217.5958948999178,1216.320777299814,1216.6460273999255,1217.318443399854,1217.6274204999208,None,None,up,1,1.7820483001414686,1216.3784236998763,None,None,None,,,,,,,erfnpg,001,0,fr,2022-05-10_14h32.08.030,3-AFC_adaptive_staircase_mess,2022.1.1,35.54605131782861,
,,,,,9,0,9,0,5,0,5,0,,,,,,,,,,,,,,,,up,250,0,0.0001674827195789138,-1,0,-1,-10,1220.6941726100165,None,1219.6422578999773,1219.9637068999,1220.649035600014,1220.9533435998019,None,None,up,1,1.6733727999962866,1219.703319999855,None,None,None,,,,,,,erfnpg,001,0,fr,2022-05-10_14h32.08.030,3-AFC_adaptive_staircase_mess,2022.1.1,35.54605131782861,
,,,,,9,0,9,0,6,0,6,0,,,,,,,,,,,,,,,,right,250,-10,5.296268625886443e-05,-1,0,-1,-10,1224.9069065099582,1225.1282030998264,1222.859555499861,1223.1823828998022,1223.8535072999075,1224.1779831999447,1224.8787398999557,1225.1898230998777,right,1,2.9691353000234812,1222.9192508999258,None,1225.4255735999905,None,,,,,,,erfnpg,001,0,fr,2022-05-10_14h32.08.030,3-AFC_adaptive_staircase_mess,2022.1.1,35.54605131782861,
,,,,,9,0,9,0,7,0,7,0,,,,,,,,,,,,,,,,right,250,-10,5.296268625886443e-05,-1,0,-1,-10,1229.452257409878,1229.6732805999927,1227.3735191999003,1227.6823828998022,1228.3751351998653,1228.6844722998794,1229.4240907998756,1229.732739500003,left,0,2.5223437999375165,1227.4457668999676,None,1229.945848000003,None,,,,,,,erfnpg,001,0,fr,2022-05-10_14h32.08.030,3-AFC_adaptive_staircase_mess,2022.1.1,35.54605131782861,
,,,,,9,0,9,0,8,0,8,0,,,,,,,,,,,,,,,,up,250,-5,9.418245447449e-05,1,1,1,5,1232.4920762099325,1232.7102593998425,1231.4615930998698,1231.779154199874,1232.46390959993,1232.7704625998158,None,None,up,1,1.8052326999604702,1231.5222471999004,None,None,None,,,,,,,erfnpg,001,0,fr,2022-05-10_14h32.08.030,3-AFC_adaptive_staircase_mess,2022.1.1,35.54605131782861,
,,,,,9,0,9,0,9,0,9,0,,,,,,,,,,,,,,,,right,250,-5,9.418245447449e-05,1,1,1,5,1236.880039609922,1237.100641499972,1234.830236400012,1235.149041599827,1235.8162742999848,1236.1156497998163,1236.8198980998714,1237.1290049999952,up,0,2.3887732999864966,1234.8913566998672,None,None,None,,,,,,,erfnpg,001,0,fr,2022-05-10_14h32.08.030,3-AFC_adaptive_staircase_mess,2022.1.1,35.54605131782861,
,,,,,9,0,9,0,10,0,10,0,,,,,,,,,,,,,,,,left,250,0,0.0001674827195789138,1,1,1,5,1238.838190509891,None,1238.7792493999004,1239.0861753998324,None,None,None,None,left,1,0.8713377001695335,1238.8406004998833,None,None,None,,,,,,,erfnpg,001,0,fr,2022-05-10_14h32.08.030,3-AFC_adaptive_staircase_mess,2022.1.1,35.54605131782861,
,,,,,9,0,9,0,11,0,11,0,,,,,,,,,,,,,,,,left,250,0,0.0001674827195789138,1,1,1,5,1241.262377310032,1241.4851338998415,1241.2058421999682,1241.5170589999761,None,None,None,None,left,1,0.7124820000026375,1241.254996499978,None,None,None,,,,,,,erfnpg,001,0,fr,2022-05-10_14h32.08.030,3-AFC_adaptive_staircase_mess,2022.1.1,35.54605131782861,
,,,,,9,0,9,0,12,0,12,0,,,,,,,,,,,,,,,,right,250,-10,5.296268625886443e-05,-1,2,-1,-5.0,1245.5228996099438,1245.7486615998205,1243.4676200998947,1243.7881322000176,1244.4697457000148,1244.7873180999886,1245.456906199921,1245.7772790000308,right,1,3.578173500020057,1243.526373700006,None,1246.010962500004,None,,,,,,,erfnpg,001,0,fr,2022-05-10_14h32.08.030,3-AFC_adaptive_staircase_mess,2022.1.1,35.54605131782861,
,,,,,9,0,9,0,13,0,13,0,,,,,,,,,,,,,,,,up,250,-10,5.296268625886443e-05,-1,2,-1,-5.0,1249.638462010026,None,1248.5825141000096,1248.895944799995,1249.6102954000235,1249.9263590998016,1250.5942362998612,1250.918752499856,up,1,2.3360418998636305,1248.6403472998645,None,None,None,,,,,,,erfnpg,001,0,fr,2022-05-10_14h32.08.030,3-AFC_adaptive_staircase_mess,2022.1.1,35.54605131782861,
,,,,,9,0,9,0,14,0,14,0,,,,,,,,,,,,,,,,left,250,-15.0,2.9783107176450517e-05,-1,2,-1,-5.0,1252.5270930099766,1252.7542185999919,1252.4776431999635,1252.7857688998338,1253.484270799905,1253.8106432999484,1254.5004076999612,1254.8310426999815,up,0,2.3559799999929965,1252.5399155998603,None,None,None,,,,,,,erfnpg,001,0,fr,2022-05-10_14h32.08.030,3-AFC_adaptive_staircase_mess,2022.1.1,35.54605131782861,
,,,,,9,0,9,0,15,0,15,0,,,,,,,,,,,,,,,,up,250,-12.5,3.971641173621407e-05,1,3,1,2.5,1257.4733294099103,1257.6989905999508,1256.393264599843,1256.7150399999227,1257.4009081998374,1257.7286077998579,1258.3920813000295,1258.7045169000048,left,0,2.8761737002059817,1256.45090289996,None,1258.9544921999332,None,,,,,,,erfnpg,001,0,fr,2022-05-10_14h32.08.030,3-AFC_adaptive_staircase_mess,2022.1.1,35.54605131782861,
,,,,,9,0,9,0,16,0,16,0,,,,,,,,,,,,,,,,left,250,-10.0,5.296268625886443e-05,1,3,1,2.5,1260.8871581099927,1261.108277299907,1260.8297239998356,1261.134766699979,1261.8297673999332,1262.1322579998523,1262.8269740999676,1263.1401723998133,right,0,3.8013023999519646,1260.887816599803,None,1263.3755910999607,None,,,,,,,erfnpg,001,0,fr,2022-05-10_14h32.08.030,3-AFC_adaptive_staircase_mess,2022.1.1,35.54605131782861,
,,,,,9,0,9,0,17,0,17,0,,,,,,,,,,,,,,,,up,250,-7.5,7.06268772311377e-05,1,3,1,2.5,1267.198669309914,1267.4158488998655,1266.178350099828,1266.502398799872,1267.1705026999116,1267.4976784000173,1268.161033499986,1268.4788422000129,right,0,3.6807828000746667,1266.2074231000151,None,1268.7146964999847,None,,,,,,,erfnpg,001,0,fr,2022-05-10_14h32.08.030,3-AFC_adaptive_staircase_mess,2022.1.1,35.54605131782861,
,,,,,9,0,9,0,18,0,18,0,,,,,,,,,,,,,,,,left,250,-5.0,9.418245447449e-05,1,3,1,2.5,1271.4452657098416,1271.6621135999449,1271.3848913998809,1271.6889994000085,1272.3901739998255,None,None,None,left,1,0.9866788999643177,1271.4455450999085,None,None,None,,,,,,,erfnpg,001,0,fr,2022-05-10_14h32.08.030,3-AFC_adaptive_staircase_mess,2022.1.1,35.54605131782861,
,,,,,9,0,9,0,19,0,19,0,,,,,,,,,,,,,,,,up,250,-5.0,9.418245447449e-05,1,3,1,2.5,1274.9896152098197,1275.2177966998424,1273.9055496999063,1274.2181198999751,1274.9185919999145,1275.2473136999179,1275.9216898998711,1276.2451620998327,up,1,5.585872599855065,1273.9660010999069,None,1276.473333099857,None,,,,,,,erfnpg,001,0,fr,2022-05-10_14h32.08.030,3-AFC_adaptive_staircase_mess,2022.1.1,35.54605131782861,
,,,,,9,0,9,0,20,0,20,0,,,,,,,,,,,,,,,,up,250,-10.0,5.296268625886443e-05,-1,4,-1,-5.0,1282.091688509984,1282.307679799851,1281.0496743000112,1281.3727950998582,1282.0635218999814,1282.3633289998397,1283.0620852999855,None,up,1,2.2357080997899175,1281.1076181998942,None,None,None,,,,,,,erfnpg,001,0,fr,2022-05-10_14h32.08.030,3-AFC_adaptive_staircase_mess,2022.1.1,35.54605131782861,
,,,,,9,0,9,0,21,0,21,0,,,,,,,,,,,,,,,,up,250,-10.0,5.296268625886443e-05,-1,4,-1,-5.0,1285.887880709907,1286.1032801999245,1284.8417215999216,1285.1649636998773,1285.8315849998035,1286.119788599899,1286.8228019999806,1287.1461276998743,right,0,3.594356599962339,1284.8696826000232,None,1287.3794372000266,None,,,,,,,erfnpg,001,0,fr,2022-05-10_14h32.08.030,3-AFC_adaptive_staircase_mess,2022.1.1,35.54605131782861,
,,,,,9,0,9,0,22,0,22,0,,,,,,,,,,,,,,,,left,250,-7.5,7.06268772311377e-05,1,5,1,2.5,1290.0146106099244,None,1289.9586312999018,1290.2643508999608,1290.9601860998664,1291.2849112998229,1291.9553627998102,1292.2807310000062,right,0,3.0402412998955697,1290.0156741000246,None,1292.5410403998103,None,,,,,,,erfnpg,001,0,fr,2022-05-10_14h32.08.030,3-AFC_adaptive_staircase_mess,2022.1.1,35.54605131782861,
,,,,,9,0,9,0,23,0,23,0,,,,,,,,,,,,,,,,up,250,-5.0,9.418245447449e-05,1,5,1,2.5,1295.603542610025,1295.8150092000142,1294.5309208999388,1294.8408600999974,1295.543443699833,1295.8401752999052,1296.539704799885,1296.860889100004,left,0,2.4689497998915613,1294.5877659998368,None,1297.093470509816,None,,,,,,,erfnpg,001,0,fr,2022-05-10_14h32.08.030,3-AFC_adaptive_staircase_mess,2022.1.1,35.54605131782861,
,,,,,9,0,9,0,24,0,24,0,,,,,,,,,,,,,,,,left,250,-2.5,0.00012559432157547898,1,5,1,2.5,1298.5884528099093,1298.8075155999977,1298.531905699987,1298.8344757999294,1299.5295539000072,1299.8542176999617,1300.5520780999213,1300.8756026998162,right,0,3.264079000102356,1298.5927998998668,None,1301.0812692998443,None,,,,,,,erfnpg,001,0,fr,2022-05-10_14h32.08.030,3-AFC_adaptive_staircase_mess,2022.1.1,35.54605131782861,
,,,,,9,0,9,0,25,0,25,0,,,,,,,,,,,,,,,,up,250,0.0,0.0001674827195789138,1,5,1,2.5,1304.4196900098584,1304.6319440000225,1303.3404271998443,1303.6494144999888,1304.3513217999134,1304.6589730000123,1305.3516096998937,1305.669947499875,up,1,2.538854300044477,1303.397145099938,None,1305.9047693999019,None,,,,,,,erfnpg,001,0,fr,2022-05-10_14h32.08.030,3-AFC_adaptive_staircase_mess,2022.1.1,35.54605131782861,
