tTrials.thisRepN,tTrials.thisTrialN,tTrials.thisN,tTrials.thisIndex,blocks.thisRepN,blocks.thisTrialN,blocks.thisN,blocks.thisIndex,trials.thisRepN,trials.thisTrialN,trials.thisN,trials.thisIndex,tStart_text.started,tStart_text.stopped,Prediction,practice_Frequency,practice_Level,practice_Psychopy_Level,practice_isCatchTrial,Practice_trial_detection,practice_Cue_Delays,practice_Cue_Frequencies,practice_Interval,practice_Cue_Intensities,tCue_visual_cue.started,tCue_visual_cue.stopped,tProbe_visual_cue.started,tProbe_visual_cue.stopped,tFeedback.keys,tFeedback.corr,tFeedback.rt,tFeedback.started,tFeedback.stopped,tToo_late.keys,tToo_late.corr,tToo_early.keys,tToo_early.corr,more_instructions.started,more_instructions.stopped,readyy.keys,readyy.rt,readyy.started,readyy.stopped,txt_rhythm.started,txt_rhythm.stopped,sound_1.started,sound_1.stopped,sound_2.started,sound_2.stopped,sound_3.started,sound_3.stopped,sound_4.started,sound_4.stopped,cross.started,cross.stopped,sound_5.started,sound_5.stopped,circle.started,circle.stopped,rhythm_ready.keys,rhythm_ready.rt,rhythm_ready.started,rhythm_ready.stopped,rhytm_ready_txt.started,rhytm_ready_txt.stopped,txt_freq.started,txt_freq.stopped,sound_6.started,sound_6.stopped,sound_7.started,sound_7.stopped,sound_8.started,sound_8.stopped,sound_9.started,sound_9.stopped,cross_2.started,cross_2.stopped,sound_10.started,sound_10.stopped,circle_2.started,circle_2.stopped,freq_ready.keys,freq_ready.rt,freq_ready.started,freq_ready.stopped,freq_ready_txt.started,freq_ready_txt.stopped,txt_freq_2.started,txt_freq_2.stopped,sound_11.started,sound_11.stopped,sound_12.started,sound_12.stopped,sound_13.started,sound_13.stopped,sound_14.started,sound_14.stopped,cross_3.started,cross_3.stopped,sound_15.started,sound_15.stopped,circle_3.started,circle_3.stopped,freq_ready_2.keys,freq_ready_2.rt,freq_ready_2.started,freq_ready_2.stopped,freq_ready_txt_2.started,freq_ready_txt_2.stopped,txt_freq_3.started,txt_freq_3.stopped,sound_16.started,sound_16.stopped,sound_17.started,sound_17.stopped,sound_18.started,sound_18.stopped,sound_19.started,sound_19.stopped,cross_4.started,cross_4.stopped,sound_20.started,sound_20.stopped,circle_4.started,circle_4.stopped,freq_ready_txt_3.started,freq_ready_txt_3.stopped,tStart_text_2.started,tStart_text_2.stopped,this_trial_is.started,this_trial_is.stopped,Frequency,Level,Psychopy_Level,Real trial detection,Cue Delays,Cue Frequencies,Interval,Cue Intensities,Catch trial,cue_visual_cue.started,cue_visual_cue.stopped,probe_visual_cue.started,probe_visual_cue.stopped,feedback.keys,feedback.corr,feedback.started,feedback.stopped,answer_too_late.keys,answer_too_late.corr,answer_too_early.keys,answer_too_early.corr,feedback.rt,answer_too_early.rt,Catch trial answer,Audiogram_time,Audiogram_frequency,Audiogram_both,Audiogram_none,participant,session,Language (english or french),Skip training? (1 for yes),Resume previous experiment,date,expName,psychopyVersion,frameRate,
0,0,0,0,,,,,,,,,19.829097699839622,None,none,1000,30,0.0013930605843148849,False,1,"[0.6953339275984903, 0.5041826191786244, 0.7365306498724005, 0.7369447977178885]","[1039.2667812262464, 139.44034666590315, 1019.3632477904508, 749.9565517118278]",None,"[30, 30, 30, 30]",46.82508529978804,49.683550499845296,49.683550499845296,50.89454559981823,"['space', 'space']",1,"[0.48323190002702177, 1.3233004999347031]",49.683550499845296,51.62726619979367,None,1,None,1,,,,,,,,,,,,,,,,,,,,,,,,,,,,,,,,,,,,,,,,,,,,,,,,,,,,,,,,,,,,,,,,,,,,,,,,,,,,,,,,,,,,,,,,,,,,,,,,,,,,,,,,,,,,,,,,,,,,,,,,,,,quvsxs,001,fr,0,0,2022-05-17_12h50.04.194,Cluster,2022.1.1,36.59194349462968,
1,0,1,0,,,,,,,,,,,time,2500,30,0.002716251657462167,False,1,"[0.7309884951781596, 0.7309884951781596, 0.7309884951781596, 0.7309884951781596]","[827.9142107953614, 1515.5311433788597, 432.7416822918133, 512.2144833886815]",None,"[30, 30, 30, 30]",58.824593199882656,61.9596492999699,61.9596492999699,63.18504069978371,['space'],1,[0.9517742998432368],61.9596492999699,63.91371619980782,None,1,None,1,,,,,,,,,,,,,,,,,,,,,,,,,,,,,,,,,,,,,,,,,,,,,,,,,,,,,,,,,,,,,,,,,,,,,,,,,,,,,,,,,,,,,,,,,,,,,,,,,,,,,,,,,,,,,,,,,,,,,,,,,,,quvsxs,001,fr,0,0,2022-05-17_12h50.04.194,Cluster,2022.1.1,36.59194349462968,
2,0,2,0,,,,,,,,,,,frequency,6000,30,0.003664122665694519,True,1,"[0.6109853212834462, 0.449595504358133, 0.6262814643807821, 0.5149697656623216]","[2381.1015779523, 3000.000000000001, 3779.76314968462, 4762.203155904599]",Major_3rd,"[30, 30, 30, 30]",67.16450499999337,69.78733339998871,69.78733339998871,71.00049739982933,None,1,,69.78733339998871,71.5279216999188,None,1,None,1,,,,,,,,,,,,,,,,,,,,,,,,,,,,,,,,,,,,,,,,,,,,,,,,,,,,,,,,,,,,,,,,,,,,,,,,,,,,,,,,,,,,,,,,,,,,,,,,,,,,,,,,,,,,,,,,,,,,,,,,,,,quvsxs,001,fr,0,0,2022-05-17_12h50.04.194,Cluster,2022.1.1,36.59194349462968,
3,0,3,0,,,,,,,,,,,time,440,30,0.0023562289915021436,False,1,"[0.4056181126943527, 0.4056181126943527, 0.4056181126943527, 0.4056181126943527]","[1090.2364871233972, 505.2831264167009, 3664.08576710599, 365.9171342906573]",None,"[30, 30, 30, 30]",76.1693986998871,78.3151347998064,78.3151347998064,79.52208899985999,['space'],1,[0.7227585001382977],78.3151347998064,79.93927079997957,None,1,None,1,,,,,,,,,,,,,,,,,,,,,,,,,,,,,,,,,,,,,,,,,,,,,,,,,,,,,,,,,,,,,,,,,,,,,,,,,,,,,,,,,,,,,,,,,,,,,,,,,,,,,,,,,,,,,,,,,,,,,,,,,,,quvsxs,001,fr,0,0,2022-05-17_12h50.04.194,Cluster,2022.1.1,36.59194349462968,
4,0,4,0,,,,,,,,,,,frequency,250,30,0.005296268625886445,True,1,"[0.5904612208692575, 0.7075273552571738, 0.5847572880247016, 0.750535118589315]","[396.85026299205003, 353.5533905932739, 314.98026247371837, 280.6155120773433]",Tone,"[30, 30, 30, 30]",82.82805149978958,85.63084749993868,85.63084749993868,86.8537957998924,None,1,,85.63084749993868,87.6085086998064,None,1,None,1,,,,,,,,,,,,,,,,,,,,,,,,,,,,,,,,,,,,,,,,,,,,,,,,,,,,,,,,,,,,,,,,,,,,,,,,,,,,,,,,,,,,,,,,,,,,,,,,,,,,,,,,,,,,,,,,,,,,,,,,,,,quvsxs,001,fr,0,0,2022-05-17_12h50.04.194,Cluster,2022.1.1,36.59194349462968,
,,,,,,,,,,,,,,,,,,,,,,,,,,,,,,,,,,,,,90.05840349989012,None,space,56.33170609991066,90.05840349989012,None,,,,,,,,,,,,,,,,,,,,,,,,,,,,,,,,,,,,,,,,,,,,,,,,,,,,,,,,,,,,,,,,,,,,,,,,,,,,,,,,,,,,,,,,,,,,,,,,,,,,,,,,,,,,,,,,,,,,,quvsxs,001,fr,0,0,2022-05-17_12h50.04.194,Cluster,2022.1.1,36.59194349462968,
,,,,,,,,,,,,,,,,,,,,,,,,,,,,,,,,,,,,,,,,,,,146.43110729986802,147.4561526000034,147.91274387000595,148.12414460000582,148.4088302700082,148.62764459988102,148.91790646996816,149.12899349979125,149.40888516984415,149.62447489984334,147.8269683998078,149.62447489984334,149.90958896984813,150.12831099983305,149.62447489984334,150.42471900000237,space,1.993807999882847,150.6199275997933,None,,,,,,,,,,,,,,,,,,,,,,,,,,,,,,,,,,,,,,,,,,,,,,,,,,,,,,,,,,,,,,,,,,,,,,,,,,,,,,,,,,,,,,,,,,,,,,,,,quvsxs,001,fr,0,0,2022-05-17_12h50.04.194,Cluster,2022.1.1,36.59194349462968,
,,,,,,,,,,,,,,,,,,,,,,,,,,,,,,,,,,,,,,,,,,,,,,,,,,,,,,,,,,,,,,,150.6199275997933,None,152.6559924997855,153.65977049991488,154.12166586990935,154.3370962999761,154.43482776994352,154.6466581998393,155.12925356982743,155.3374677998945,155.5372034698492,None,154.00245699984953,155.8279973999597,156.10990916991142,156.32380359992385,155.8279973999597,156.64623309997842,space,0.824101900216192,156.8053326997906,None,,,,,,,,,,,,,,,,,,,,,,,,,,,,,,,,,,,,,,,,,,,,,,,,,,,,,,,,,,,,,,,,,,,,,,,,,,,quvsxs,001,fr,0,0,2022-05-17_12h50.04.194,Cluster,2022.1.1,36.59194349462968,
,,,,,,,,,,,,,,,,,,,,,,,,,,,,,,,,,,,,,,,,,,,,,,,,,,,,,,,,,,,,,,,,,,,,,,,,,,,,,,,,,,,,,156.8053326997906,None,157.6696519998368,158.70630799978971,159.14225536987652,None,159.63342516992708,159.84524019993842,160.15384516988416,160.3702859999612,160.6542841699673,160.8697609999217,159.05335389985703,160.8697609999217,161.15454536986073,161.36913949996233,160.8697609999217,161.66877159988508,space,1.6839012000709772,161.8360462000128,None,,,,,,,,,,,,,,,,,,,,,,,,,,,,,,,,,,,,,,,,,,,,,,,,,,,,,quvsxs,001,fr,0,0,2022-05-17_12h50.04.194,Cluster,2022.1.1,36.59194349462968,
,,,,0,0,0,0,0,0,0,0,,,both,,,,,,,,,,,,,,,,,,,,,,,,,,,,,,,,,,,,,,,,,,,,,,,,,,,,,,,,,,,,,,,,,,,,,,,,,,,,,,,,,,,,,,,,,,,,,161.8360462000128,None,163.57258389983326,164.57065609982237,165.02437396983152,None,165.32505706984085,165.54134609992616,166.02695056989324,166.24239009991288,166.44126246992965,166.6477494998835,164.93584339995869,166.72940209996887,167.04515436997173,167.26019639987499,166.72940209996887,167.54451219993643,167.7471210998483,None,168.78387299994938,None,173.8597434000112,None,7897.985149245324,-2.3824090945664764,0.0001356400999085043,0,"[0.4611395971804157, 0.4611395971804157, 0.4611395971804157, 0.4611395971804157]","[4975.418870645642, 5584.718856742014, 6268.634967170621, 7036.304845354095]",Tone,"[2.253106289190758, 1.0815060227410527, 1.0192658574643438, 2.0]",False,174.83601729990914,177.2410539998673,177.2410539998673,178.44964789994992,None,0,2.8811704302206635,3.8834084302652627,None,1,None,1,,,,,,,,quvsxs,001,fr,0,0,2022-05-17_12h50.04.194,Cluster,2022.1.1,36.59194349462968,
,,,,0,0,0,0,1,0,1,0,,,none,,,,,,,,,,,,,,,,,,,,,,,,,,,,,,,,,,,,,,,,,,,,,,,,,,,,,,,,,,,,,,,,,,,,,,,,,,,,,,,,,,,,,,,,,,,,,,,,,,,,,,,,,,,,,,,,,,,178.7483280999586,None,1917.4556790994486,0.0,7.108465041158996e-05,1,"[0.5875089695920864, 0.4117537725973188, 0.5967667265528184, 0.5159851878517425]","[567.6854563196052, 5132.843062738238, 3034.3117204164046, 5351.6474371332915]",None,"[10.146867375390293, 2.0, 6.301877561509345, 1.504103727551139]",False,179.75847000000067,182.36397499986924,182.36397499986924,183.58062239992432,['space'],1,3.1639620300848037,4.1573235301766545,None,1,None,1,[0.18229099991731346],,,,,,,quvsxs,001,fr,0,0,2022-05-17_12h50.04.194,Cluster,2022.1.1,36.59194349462968,
,,,,0,0,0,0,2,0,2,0,,,time,,,,,,,,,,,,,,,,,,,,,,,,,,,,,,,,,,,,,,,,,,,,,,,,,,,,,,,,,,,,,,,,,,,,,,,,,,,,,,,,,,,,,,,,,,,,,,,,,,,,,,,,,,,,,,,,,,,183.93595179985277,None,151.39779921739637,3.1576145975989864,0.0007015167723184188,0,"[0.684385773752223, 0.684385773752223, 0.684385773752223, 0.684385773752223]","[1448.1964074068526, 2922.7885820968204, 7824.3295612307265, 4177.399987403758]",None,"[7.089383911605467, 6.0, 3.6175909054335236, 4.2409436738925885]",False,184.94159809988923,188.03875759989023,188.03875759989023,189.26101149991155,None,0,3.7779599302448332,4.783755130367354,None,1,None,1,,,,,,,,quvsxs,001,fr,0,0,2022-05-17_12h50.04.194,Cluster,2022.1.1,36.59194349462968,
,,,,0,0,0,0,3,0,3,0,,,frequency,,,,,,,,,,,,,,,,,,,,,,,,,,,,,,,,,,,,,,,,,,,,,,,,,,,,,,,,,,,,,,,,,,,,,,,,,,,,,,,,,,,,,,,,,,,,,,,,,,,,,,,,,,,,,,,,,,,189.7467844998464,None,1701.4188707959804,0.5661564456007218,6.54606335524185e-05,0,"[0.6237385897007361, 0.4549203408791256, 0.4781350640865354, 0.7753154198881641]","[1071.8267250021104, 1203.0848211785958, 1350.4170526700425, 1515.7918910119224]",Tone,"[5.839735171374016, 6.50896343074093, 7.0, 7.124052080247171]",False,190.74662449979223,193.3435962998774,193.3435962998774,194.5546392998658,None,0,3.3600005304906517,4.363180430373177,None,1,['space'],0,,[0.6301460999529809],,,,,,quvsxs,001,fr,0,0,2022-05-17_12h50.04.194,Cluster,2022.1.1,36.59194349462968,
,,,,0,0,0,0,4,0,4,0,,,none,,,,,,,,,,,,,,,,,,,,,,,,,,,,,,,,,,,,,,,,,,,,,,,,,,,,,,,,,,,,,,,,,,,,,,,,,,,,,,,,,,,,,,,,,,,,,,,,,,,,,,,,,,,,,,,,,,,195.13375779986382,None,353.5533905932738,-1.0,7.897582242723967e-05,0,"[0.4978045896459884, 0.4330428498504535, 0.4283211379077669, 0.5457250194334963]","[5212.092584558931, 603.5258624239866, 197.5941725079637, 1096.6391770320524]",None,"[1.504103727551139, 9.439401505478198, 7.0, 6.0]",False,196.1533454998862,198.52976710000075,198.52976710000075,199.74123879987746,None,0,2.9248112302739173,3.9529135301709175,None,1,None,1,,,,,,,,quvsxs,001,fr,0,0,2022-05-17_12h50.04.194,Cluster,2022.1.1,36.59194349462968,
,,,,0,0,0,0,5,0,5,0,,,both,,,,,,,,,,,,,,,,,,,,,,,,,,,,,,,,,,,,,,,,,,,,,,,,,,,,,,,,,,,,,,,,,,,,,,,,,,,,,,,,,,,,,,,,,,,,,,,,,,,,,,,,,,,,,,,,,,,200.14428579993546,None,,,,,"[0.7094288932908848, 0.7094288932908848, 0.7094288932908848, 0.7094288932908848]","[226.1544879960448, 253.84982983039794, 284.93679995441425, 319.83074411554986]",Tone,"[6.896536167076867, 7.280743668337028, 8.559262982701703, 10.0]",True,201.14924289984629,204.306005399907,204.306005399907,205.5126306999009,['space'],0,3.88973343023099,4.888628030195832,None,1,None,1,[0.6897348000202328],,0,,,,,quvsxs,001,fr,0,0,2022-05-17_12h50.04.194,Cluster,2022.1.1,36.59194349462968,
,,,,0,0,0,0,6,0,6,0,,,none,,,,,,,,,,,,,,,,,,,,,,,,,,,,,,,,,,,,,,,,,,,,,,,,,,,,,,,,,,,,,,,,,,,,,,,,,,,,,,,,,,,,,,,,,,,,,,,,,,,,,,,,,,,,,,,,,,,206.05610589985736,None,3654.6617045597827,0.0,7.787809684694128e-05,0,"[0.4329791580638401, 0.41670366342171805, 0.4775115258181796, 0.7410570761152139]","[281.23204625276753, 424.9858935927524, 349.4297930214661, 220.54631579441192]",None,"[8.559262982701703, 11.671229488450555, 10.735160218967797, 6.75705146153416]",False,207.05642489995807,209.40650179982185,209.40650179982185,210.6300551998429,None,0,3.1185270303394645,4.131762330420315,None,1,['space'],0,,[0.5276904001366347],,,,,,quvsxs,001,fr,0,0,2022-05-17_12h50.04.194,Cluster,2022.1.1,36.59194349462968,
,,,,0,0,0,0,7,0,7,0,,,both,,,,,,,,,,,,,,,,,,,,,,,,,,,,,,,,,,,,,,,,,,,,,,,,,,,,,,,,,,,,,,,,,,,,,,,,,,,,,,,,,,,,,,,,,,,,,,,,,,,,,,,,,,,,,,,,,,,211.22573129995726,None,353.5533905932738,0.0,8.861233020703779e-05,0,"[0.6676910942223229, 0.6676910942223229, 0.6676910942223229, 0.6676910942223229]","[1781.7974362806788, 1189.2071150027211, 793.7005259840998, 529.7315471796477]",Perfect_5th,"[6.566156445600722, 6.14075580409218, 6.566281837311289, 10.754830723770002]",False,212.22368339984678,215.2548611999955,215.2548611999955,216.47257659980096,None,0,3.692753530340269,4.7024974301457405,None,1,None,1,,,,,,,,quvsxs,001,fr,0,0,2022-05-17_12h50.04.194,Cluster,2022.1.1,36.59194349462968,
,,,,0,0,0,0,8,0,8,0,,,none,,,,,,,,,,,,,,,,,,,,,,,,,,,,,,,,,,,,,,,,,,,,,,,,,,,,,,,,,,,,,,,,,,,,,,,,,,,,,,,,,,,,,,,,,,,,,,,,,,,,,,,,,,,,,,,,,,,216.96533649996854,None,203.0630990890589,2.0,0.00032661690408859664,1,"[0.6483942108894379, 0.6782770893323155, 0.4333649058543625, 0.6901303169860197]","[368.8323923847388, 327.6252767169736, 229.79302601927978, 125.6977691713693]",None,"[11.0, 10.0, 6.896536167076867, 10.55968581726599]",False,217.97690429980867,220.752288099844,220.752288099844,221.97169909998775,['space'],1,3.4642358301207423,4.477149930084124,None,1,None,1,[0.3130870000459254],,,,,,,quvsxs,001,fr,0,0,2022-05-17_12h50.04.194,Cluster,2022.1.1,36.59194349462968,
,,,,0,0,0,0,9,0,9,0,,,none,,,,,,,,,,,,,,,,,,,,,,,,,,,,,,,,,,,,,,,,,,,,,,,,,,,,,,,,,,,,,,,,,,,,,,,,,,,,,,,,,,,,,,,,,,,,,,,,,,,,,,,,,,,,,,,,,,,222.48861259990372,None,1014.8027403287407,-0.2914297226421427,4.3197639802860424e-05,1,"[0.5092502252558831, 0.6421113506960384, 0.7436443538429568, 0.7597710269305057]","[939.0808868556287, 3531.7198761334553, 255.46382125524846, 4276.689277543611]",None,"[5.785634017698149, 6.36155917072716, 7.280743668337028, 4.2409436738925885]",False,223.50227789999917,226.42218739981763,226.42218739981763,227.639645999996,['space'],1,3.6880993300583214,4.725239929975942,None,1,None,1,[0.289834100054577],,,,,,,quvsxs,001,fr,0,0,2022-05-17_12h50.04.194,Cluster,2022.1.1,36.59194349462968,
,,,,0,0,0,0,10,0,10,0,,,both,,,,,,,,,,,,,,,,,,,,,,,,,,,,,,,,,,,,,,,,,,,,,,,,,,,,,,,,,,,,,,,,,,,,,,,,,,,,,,,,,,,,,,,,,,,,,,,,,,,,,,,,,,,,,,,,,,,228.25726250000298,None,350.9610477188159,4.735160218967797,0.0001540061621036193,1,"[0.46992074799241246, 0.46992074799241246, 0.46992074799241246, 0.46992074799241246]","[139.2789840871775, 175.48052385940798, 221.09160585704763, 278.5579681743549]",Major_3rd,"[10.0, 7.787190183442288, 6.75705146153416, 8.0]",False,229.2620992998127,231.68548200000077,231.68548200000077,232.88810659991577,['space'],1,2.9234656302724034,3.9257497303187847,None,1,None,1,[0.20603670016862452],,,,,,,quvsxs,001,fr,0,0,2022-05-17_12h50.04.194,Cluster,2022.1.1,36.59194349462968,
,,,,0,0,0,0,11,0,11,0,,,time,,,,,,,,,,,,,,,,,,,,,,,,,,,,,,,,,,,,,,,,,,,,,,,,,,,,,,,,,,,,,,,,,,,,,,,,,,,,,,,,,,,,,,,,,,,,,,,,,,,,,,,,,,,,,,,,,,,233.21863839984871,None,353.5533905932738,0.0,8.861233020703779e-05,1,"[0.5864947632463408, 0.5864947632463408, 0.5864947632463408, 0.5864947632463408]","[712.4336629292437, 1515.9649004346613, 5683.967215264329, 141.43210761004764]",None,"[7.917063680964205, 7.124052080247171, 1.0815060227410527, 10.0]",False,234.23532929993235,237.024663799908,237.024663799908,238.23797079990618,['space'],1,3.365219530183822,4.368030430050567,None,1,None,1,[0.2582719000056386],,,,,,,quvsxs,001,fr,0,0,2022-05-17_12h50.04.194,Cluster,2022.1.1,36.59194349462968,
,,,,0,0,0,0,12,0,12,0,,,none,,,,,,,,,,,,,,,,,,,,,,,,,,,,,,,,,,,,,,,,,,,,,,,,,,,,,,,,,,,,,,,,,,,,,,,,,,,,,,,,,,,,,,,,,,,,,,,,,,,,,,,,,,,,,,,,,,,238.65023129992187,None,574.3491774985172,0.0,5.984619860562044e-05,0,"[0.4182191810137144, 0.4301103468630651, 0.5832190108518134, 0.7977242825560377]","[1529.6528205476363, 1147.5554837770267, 7589.29785445821, 247.1576167785619]",None,"[7.124052080247171, 6.14075580409218, 3.0000000000000004, 7.280743668337028]",False,239.7123358999379,242.17225209996104,242.17225209996104,243.37260070000775,None,0,3.2595339701510966,4.270268169930205,None,1,None,1,,,,,,,,quvsxs,001,fr,0,0,2022-05-17_12h50.04.194,Cluster,2022.1.1,36.59194349462968,
,,,,0,0,0,0,13,0,13,0,,,frequency,,,,,,,,,,,,,,,,,,,,,,,,,,,,,,,,,,,,,,,,,,,,,,,,,,,,,,,,,,,,,,,,,,,,,,,,,,,,,,,,,,,,,,,,,,,,,,,,,,,,,,,,,,,,,,,,,,,244.03558069979772,None,,,,,"[0.481280333711238, 0.47977916570171314, 0.5528038432860094, 0.5159324809334574]","[4463.666308330354, 5010.296027418026, 5623.867141571952, 6312.577431148632]",Tone,"[4.0, 2.0, 1.0815060227410527, 1.3154670164497082]",True,245.0377015999984,247.57663419982418,247.57663419982418,248.80057949991897,['space'],0,3.0773962303064764,4.091506430180743,None,1,None,1,[0.37387580005452037],,0,,,,,quvsxs,001,fr,0,0,2022-05-17_12h50.04.194,Cluster,2022.1.1,36.59194349462968,
,,,,0,0,0,0,14,0,14,0,,,none,,,,,,,,,,,,,,,,,,,,,,,,,,,,,,,,,,,,,,,,,,,,,,,,,,,,,,,,,,,,,,,,,,,,,,,,,,,,,,,,,,,,,,,,,,,,,,,,,,,,,,,,,,,,,,,,,,,249.1522114998661,None,4753.133899821548,-3.0,9.611087729658064e-05,1,"[0.4751448673155985, 0.47323396968420084, 0.5652874246826105, 0.7312913892216232]","[7177.826866711655, 1268.4288434560042, 2792.904588038556, 6153.536915884985]",None,"[2.0, 6.50896343074093, 5.950210366582112, 1.0192658574643438]",False,250.14794919989072,252.66821809997782,252.66821809997782,253.8805092999246,['space'],1,3.271772130159661,4.292009930126369,None,1,None,1,[0.15666459989733994],,,,,,,quvsxs,001,fr,0,0,2022-05-17_12h50.04.194,Cluster,2022.1.1,36.59194349462968,
,,,,0,0,0,0,15,0,15,0,,,both,,,,,,,,,,,,,,,,,,,,,,,,,,,,,,,,,,,,,,,,,,,,,,,,,,,,,,,,,,,,,,,,,,,,,,,,,,,,,,,,,,,,,,,,,,,,,,,,,,,,,,,,,,,,,,,,,,,254.4692489998415,None,189.4645708137998,2.0,0.0003824766710234111,1,"[0.5334579775630341, 0.5334579775630341, 0.5334579775630341, 0.5334579775630341]","[300.7562590205293, 267.9433656340734, 238.71040097760422, 212.666790237714]",Tone,"[9.0, 7.849121882063646, 7.0, 6.75705146153416]",False,255.4992674998939,258.1182505998295,258.1182505998295,259.31931699998677,['space'],1,3.171690230257809,4.185767430346459,None,1,None,1,[0.6838064000476152],,,,,,,quvsxs,001,fr,0,0,2022-05-17_12h50.04.194,Cluster,2022.1.1,36.59194349462968,
,,,,0,0,0,0,16,0,16,0,,,time,,,,,,,,,,,,,,,,,,,,,,,,,,,,,,,,,,,,,,,,,,,,,,,,,,,,,,,,,,,,,,,,,,,,,,,,,,,,,,,,,,,,,,,,,,,,,,,,,,,,,,,,,,,,,,,,,,,259.7273251998704,None,924.428388891526,-0.214365982301851,4.08830205376182e-05,0,"[0.7798939493329021, 0.7798939493329021, 0.7798939493329021, 0.7798939493329021]","[1006.7925769505861, 388.97617918305235, 3338.5228662085683, 301.20411446710773]",None,"[5.7085702773578575, 11.254749696499829, 6.469547185443853, 9.0]",False,260.7394842999056,264.1116941999644,264.1116941999644,265.314449199941,None,0,4.165275630308315,5.167567930184305,None,1,None,1,,,,,,,,quvsxs,001,fr,0,0,2022-05-17_12h50.04.194,Cluster,2022.1.1,36.59194349462968,
,,,,0,0,0,0,17,0,17,0,,,time,,,,,,,,,,,,,,,,,,,,,,,,,,,,,,,,,,,,,,,,,,,,,,,,,,,,,,,,,,,,,,,,,,,,,,,,,,,,,,,,,,,,,,,,,,,,,,,,,,,,,,,,,,,,,,,,,,,265.93971009994857,None,4594.793419988137,0.0,0.00012486547057085194,1,"[0.43049674066617555, 0.43049674066617555, 0.43049674066617555, 0.43049674066617555]","[241.87401830059815, 2367.173909095286, 6075.207207541617, 1279.638670338915]",None,"[7.0, 5.176677237760281, 1.0192658574643438, 6.854557875483904]",False,267.6199395000003,269.94693379988894,269.94693379988894,271.15353759983554,['space'],1,2.763159310212359,3.769920410355553,None,1,None,1,[0.38289690017700195],,,,,,,quvsxs,001,fr,0,0,2022-05-17_12h50.04.194,Cluster,2022.1.1,36.59194349462968,
,,,,0,0,0,0,18,0,18,0,,,both,,,,,,,,,,,,,,,,,,,,,,,,,,,,,,,,,,,,,,,,,,,,,,,,,,,,,,,,,,,,,,,,,,,,,,,,,,,,,,,,,,,,,,,,,,,,,,,,,,,,,,,,,,,,,,,,,,,271.4224784998223,None,4515.957601936642,-2.789054743140065,8.66365349840394e-05,1,"[0.665827358333325, 0.665827358333325, 0.665827358333325, 0.665827358333325]","[896.0794809947516, 1342.6022278184203, 2011.6304193707376, 3014.040093403583]",Perfect_5th,"[6.0, 6.854557875483904, 5.633473004060601, 6.301877561509345]",False,272.4287913998123,275.4585571999196,275.4585571999196,276.676462699892,['space'],1,3.7096206303685904,4.71995483036153,None,1,None,1,[0.18324499996379018],,,,,,,quvsxs,001,fr,0,0,2022-05-17_12h50.04.194,Cluster,2022.1.1,36.59194349462968,
,,,,0,0,0,0,19,0,19,0,,,none,,,,,,,,,,,,,,,,,,,,,,,,,,,,,,,,,,,,,,,,,,,,,,,,,,,,,,,,,,,,,,,,,,,,,,,,,,,,,,,,,,,,,,,,,,,,,,,,,,,,,,,,,,,,,,,,,,,277.1798514998518,None,287.17458874925893,1.0,0.00014373014543855395,1,"[0.6065963553282815, 0.7712798031369784, 0.5621835312733706, 0.7591665806687773]","[570.0878655583598, 346.0330344695892, 4207.176755184195, 252.5422530918851]",None,"[10.146867375390293, 10.735160218967797, 4.2409436738925885, 7.280743668337028]",False,278.2048700999003,281.15908389980905,281.15908389980905,282.3647907997947,['space'],1,3.7151446302887052,4.719176830491051,None,1,None,1,[0.2320310000795871],,,,,,,quvsxs,001,fr,0,0,2022-05-17_12h50.04.194,Cluster,2022.1.1,36.59194349462968,
,,,,1,0,1,0,0,0,0,0,,,both,,,,,,,,,,,,,,,,,,,,,,,,,,,,,,,,,,,,,,,,,,,,,,,,,,,,,,,,,,,,,,,,,,,,,,,,,,,,,,,,,,,,,,,,,,,,,,,,,,,,,,,,,,,,,,,,,,,310.671610499965,None,,,,,"[0.6784389423098589, 0.6784389423098589, 0.6784389423098589, 0.6784389423098589]","[342.9600037364815, 305.5426277022373, 272.20753535715414, 242.5093443178297]",Tone,"[10.735160218967797, 9.330168526613592, 8.0, 7.0]",True,311.62940469989553,314.69352199998684,314.69352199998684,315.9105243999511,None,1,3.7615392301231623,4.777366830036044,None,1,None,1,,,0,,,,,quvsxs,001,fr,0,0,2022-05-17_12h50.04.194,Cluster,2022.1.1,36.59194349462968,
,,,,1,0,1,0,1,0,1,0,,,none,,,,,,,,,,,,,,,,,,,,,,,,,,,,,,,,,,,,,,,,,,,,,,,,,,,,,,,,,,,,,,,,,,,,,,,,,,,,,,,,,,,,,,,,,,,,,,,,,,,,,,,,,,,,,,,,,,,316.42951319995336,None,3984.907536000925,-0.8092915326783954,7.6231159614332e-05,1,"[0.5901478088548537, 0.4312631280313792, 0.4023698427802441, 0.5045570127148528]","[3580.101591158167, 375.8531128259214, 846.5040707501437, 239.6816739037487]",None,"[6.36155917072716, 11.254749696499829, 6.085324619050359, 7.0]",False,317.43917199992575,319.88815679983236,319.88815679983236,321.1172102999408,['space'],1,2.9600246301852167,3.98325713025406,None,1,None,1,[0.15222529997117817],,,,,,,quvsxs,001,fr,0,0,2022-05-17_12h50.04.194,Cluster,2022.1.1,36.59194349462968,
,,,,1,0,1,0,2,0,2,0,,,time,,,,,,,,,,,,,,,,,,,,,,,,,,,,,,,,,,,,,,,,,,,,,,,,,,,,,,,,,,,,,,,,,,,,,,,,,,,,,,,,,,,,,,,,,,,,,,,,,,,,,,,,,,,,,,,,,,,321.454113899963,None,299.91007371278835,3.0,0.00016188745315644086,1,"[0.7083889037728934, 0.7083889037728934, 0.7083889037728934, 0.7083889037728934]","[2322.410199776669, 1683.1546242173556, 3657.2197052725114, 1660.5273075189123]",None,"[5.176677237760281, 6.566156445600722, 6.0, 6.93382556238002]",False,322.46651309984736,325.62700859992765,325.62700859992765,326.8351602999028,['space'],1,3.877673030132428,4.898989230161533,None,1,None,1,[0.29452909994870424],,,,,,,quvsxs,001,fr,0,0,2022-05-17_12h50.04.194,Cluster,2022.1.1,36.59194349462968,
,,,,1,0,1,0,3,0,3,0,,,frequency,,,,,,,,,,,,,,,,,,,,,,,,,,,,,,,,,,,,,,,,,,,,,,,,,,,,,,,,,,,,,,,,,,,,,,,,,,,,,,,,,,,,,,,,,,,,,,,,,,,,,,,,,,,,,,,,,,,327.39747069985606,None,353.5533905932738,0.0,8.861233020703779e-05,1,"[0.5228203843594056, 0.4985761782584753, 0.5342376435280286, 0.41787254043932337]","[140.30775603867167, 176.77669529663694, 222.72467953508487, 280.6155120773433]",Major_3rd,"[10.0, 7.787190183442288, 6.75705146153416, 8.559262982701703]",False,328.42269579996355,330.9987280999776,330.9987280999776,332.2199726998806,['space'],1,2.997591830091551,3.9993906302843243,None,1,None,1,[0.35844570002518594],,,,,,,quvsxs,001,fr,0,0,2022-05-17_12h50.04.194,Cluster,2022.1.1,36.59194349462968,
,,,,1,0,1,0,4,0,4,0,,,both,,,,,,,,,,,,,,,,,,,,,,,,,,,,,,,,,,,,,,,,,,,,,,,,,,,,,,,,,,,,,,,,,,,,,,,,,,,,,,,,,,,,,,,,,,,,,,,,,,,,,,,,,,,,,,,,,,,332.463929399848,None,2297.3967099940687,-1.0,7.255162032671163e-05,1,"[0.6707231327251221, 0.6707231327251221, 0.6707231327251221, 0.6707231327251221]","[911.7224885582166, 1148.6983549970346, 1447.2692374403775, 1823.4449771164327]",Major_3rd,"[5.785634017698149, 6.14075580409218, 7.089383911605467, 6.1002107947482305]",False,333.5033786999993,336.54501819983125,336.54501819983125,337.7504561999813,['space'],1,3.691062029916793,4.722086529945955,None,1,['space'],0,[0.47047169995494187],[-0.507119899848476],,,,,,quvsxs,001,fr,0,0,2022-05-17_12h50.04.194,Cluster,2022.1.1,36.59194349462968,
,,,,1,0,1,0,5,0,5,0,,,frequency,,,,,,,,,,,,,,,,,,,,,,,,,,,,,,,,,,,,,,,,,,,,,,,,,,,,,,,,,,,,,,,,,,,,,,,,,,,,,,,,,,,,,,,,,,,,,,,,,,,,,,,,,,,,,,,,,,,338.27656249981374,None,270.4043033517541,2.0,0.0001836346881450034,1,"[0.6978065784897436, 0.79657041645314, 0.6124177117572001, 0.7376778175259414]","[170.34403688751686, 191.20471656204958, 214.62003779865128, 240.90284723570917]",Tone,"[8.0, 7.241812043660456, 6.75705146153416, 7.0]",False,339.28551129996777,342.4361337998416,342.4361337998416,343.63954279990867,['space'],1,3.8988068304024637,4.916411730460823,None,1,None,1,[0.31988289998844266],,,,,,,quvsxs,001,fr,0,0,2022-05-17_12h50.04.194,Cluster,2022.1.1,36.59194349462968,
,,,,1,0,1,0,6,0,6,0,,,time,,,,,,,,,,,,,,,,,,,,,,,,,,,,,,,,,,,,,,,,,,,,,,,,,,,,,,,,,,,,,,,,,,,,,,,,,,,,,,,,,,,,,,,,,,,,,,,,,,,,,,,,,,,,,,,,,,,344.23349389992654,None,,,,,"[0.4013523638052492, 0.4013523638052492, 0.4013523638052492, 0.4013523638052492]","[4670.985121541515, 661.4354674115189, 136.00282347572016, 7911.65413937036]",None,"[3.0, 8.679293836948103, 10.27310147448673, 3.6175909054335236]",True,345.23011699994095,347.4492396998685,347.4492396998685,348.66482669999823,None,1,2.652712130220607,3.6741889303084463,None,1,None,1,,,0,,,,,quvsxs,001,fr,0,0,2022-05-17_12h50.04.194,Cluster,2022.1.1,36.59194349462968,
,,,,1,0,1,0,7,0,7,0,,,frequency,,,,,,,,,,,,,,,,,,,,,,,,,,,,,,,,,,,,,,,,,,,,,,,,,,,,,,,,,,,,,,,,,,,,,,,,,,,,,,,,,,,,,,,,,,,,,,,,,,,,,,,,,,,,,,,,,,,348.92559719993733,None,4594.793419988137,0.0,0.00012486547057085194,1,"[0.4812996803275459, 0.744624038674005, 0.5693994387797934, 0.42774397786302515]","[7293.779908465733, 6498.019170849882, 5789.07694976151, 5157.481233758314]",Tone,"[2.71146726003745, 1.3154670164497082, 1.0815060227410527, 2.0]",False,349.9525918997824,352.77095229993574,352.77095229993574,353.99528219993226,['space'],1,3.2498018299229443,4.252468429971486,None,1,None,1,[0.22233979986049235],,,,,,,quvsxs,001,fr,0,0,2022-05-17_12h50.04.194,Cluster,2022.1.1,36.59194349462968,
,,,,1,0,1,0,8,0,8,0,,,none,,,,,,,,,,,,,,,,,,,,,,,,,,,,,,,,,,,,,,,,,,,,,,,,,,,,,,,,,,,,,,,,,,,,,,,,,,,,,,,,,,,,,,,,,,,,,,,,,,,,,,,,,,,,,,,,,,,354.25867779995315,None,2639.015821545789,0.0,7.725655650415703e-05,1,"[0.566143391737358, 0.7388402767867961, 0.5458915086675898, 0.5513853090751089]","[541.7933692816831, 693.6235236489351, 1203.3636014688163, 190.8188902283604]",None,"[10.754830723770002, 8.0, 6.50896343074093, 7.241812043660456]",False,355.28101669996977,358.15746719995514,358.15746719995514,359.3830977999605,['space'],1,3.4310177301522344,4.443121430231258,None,1,None,1,[0.44283429998904467],,,,,,,quvsxs,001,fr,0,0,2022-05-17_12h50.04.194,Cluster,2022.1.1,36.59194349462968,
,,,,1,0,1,0,9,0,9,0,,,time,,,,,,,,,,,,,,,,,,,,,,,,,,,,,,,,,,,,,,,,,,,,,,,,,,,,,,,,,,,,,,,,,,,,,,,,,,,,,,,,,,,,,,,,,,,,,,,,,,,,,,,,,,,,,,,,,,,359.77224899991415,None,535.8867312681471,-1.0,5.868562523083328e-05,1,"[0.6240309615596398, 0.6240309615596398, 0.6240309615596398, 0.6240309615596398]","[5090.326475017863, 3258.3242410865014, 1027.8937886075805, 1519.4355687362083]",None,"[2.0, 6.469547185443853, 5.7085702773578575, 7.124052080247171]",False,360.8397491998039,363.72797209979035,363.72797209979035,364.9625948998146,['space'],1,3.5265976700466126,4.5562489698641,None,1,None,1,[0.3271017000079155],,,,,,,quvsxs,001,fr,0,0,2022-05-17_12h50.04.194,Cluster,2022.1.1,36.59194349462968,
,,,,1,0,1,0,10,0,10,0,,,none,,,,,,,,,,,,,,,,,,,,,,,,,,,,,,,,,,,,,,,,,,,,,,,,,,,,,,,,,,,,,,,,,,,,,,,,,,,,,,,,,,,,,,,,,,,,,,,,,,,,,,,,,,,,,,,,,,,365.44351569982246,None,1736.3974588458702,0.5661564456007218,6.714640121190906e-05,1,"[0.7723566575153196, 0.558717094465689, 0.47463041432539593, 0.531379184008588]","[126.71450720880854, 1803.6521467344169, 882.8227683360158, 2837.2280766549848]",None,"[10.55968581726599, 6.1002107947482305, 6.0, 5.950210366582112]",False,366.440721699968,369.2862057997845,369.2862057997845,370.49172699986957,['space'],1,3.39089533011429,4.409162430092692,None,1,None,1,[0.31980649987235665],,,,,,,quvsxs,001,fr,0,0,2022-05-17_12h50.04.194,Cluster,2022.1.1,36.59194349462968,
,,,,1,0,1,0,11,0,11,0,,,frequency,,,,,,,,,,,,,,,,,,,,,,,,,,,,,,,,,,,,,,,,,,,,,,,,,,,,,,,,,,,,,,,,,,,,,,,,,,,,,,,,,,,,,,,,,,,,,,,,,,,,,,,,,,,,,,,,,,,370.8857002998702,None,,,,,"[0.6971394832347988, 0.6406625937520668, 0.5946195696487993, 0.5223852428242977]","[5922.783722278224, 4700.91655566229, 3731.119942836522, 2961.391861139112]",Major_3rd,"[1.0192658574643438, 3.0, 5.919617785862145, 6.301877561509345]",True,371.8830418998841,374.8418929998297,374.8418929998297,376.0545490998775,['space'],0,3.48681463021785,4.504746730206534,None,1,None,1,[0.23015730013139546],,0,,,,,quvsxs,001,fr,0,0,2022-05-17_12h50.04.194,Cluster,2022.1.1,36.59194349462968,
,,,,1,0,1,0,12,0,12,0,,,frequency,,,,,,,,,,,,,,,,,,,,,,,,,,,,,,,,,,,,,,,,,,,,,,,,,,,,,,,,,,,,,,,,,,,,,,,,,,,,,,,,,,,,,,,,,,,,,,,,,,,,,,,,,,,,,,,,,,,376.416171599878,None,1496.5253714978187,1.1240520802471714,5.5074114637445554e-05,1,"[0.6300667003554539, 0.5928939470811088, 0.7774234687374263, 0.530190025885956]","[942.7519086259233, 1058.2032384038248, 1187.7929745063689, 1333.2525351319016]",Tone,"[5.785634017698149, 5.839735171374016, 6.14075580409218, 6.854557875483904]",False,377.42666949983686,380.44946149992757,380.44946149992757,381.6592782998923,['space'],1,3.5657440300565213,4.571892030071467,None,1,None,1,[0.2542293998412788],,,,,,,quvsxs,001,fr,0,0,2022-05-17_12h50.04.194,Cluster,2022.1.1,36.59194349462968,
,,,,1,0,1,0,13,0,13,0,,,time,,,,,,,,,,,,,,,,,,,,,,,,,,,,,,,,,,,,,,,,,,,,,,,,,,,,,,,,,,,,,,,,,,,,,,,,,,,,,,,,,,,,,,,,,,,,,,,,,,,,,,,,,,,,,,,,,,,382.0352242998779,None,689.0494460334613,2.0,5.7893503394559675e-05,0,"[0.5566421050844692, 0.5566421050844692, 0.5566421050844692, 0.5566421050844692]","[1455.4766916451279, 2746.7621606497073, 439.6148880636616, 4314.146680269023]",None,"[7.089383911605467, 5.950210366582112, 11.671229488450555, 4.2409436738925885]",False,383.049938299926,385.7370265999343,385.7370265999343,386.9510338997934,None,0,3.2540486303623766,4.270950030302629,None,1,None,1,,,,,,,,quvsxs,001,fr,0,0,2022-05-17_12h50.04.194,Cluster,2022.1.1,36.59194349462968,
,,,,1,0,1,0,14,0,14,0,,,none,,,,,,,,,,,,,,,,,,,,,,,,,,,,,,,,,,,,,,,,,,,,,,,,,,,,,,,,,,,,,,,,,,,,,,,,,,,,,,,,,,,,,,,,,,,,,,,,,,,,,,,,,,,,,,,,,,,387.3494175998494,None,176.7766952966369,-1.0,0.0003119565241000184,0,"[0.5106206300738897, 0.7532209513565807, 0.6454127213377618, 0.454911559038607]","[409.2498698155755, 540.124559767002, 199.6148949812361, 6804.299250758561]",None,"[11.570024076097177, 10.754830723770002, 7.0, 1.9086571462799524]",False,388.3579187998548,391.2914652999025,391.2914652999025,392.51358859986067,None,0,3.4009333301801234,4.413008630042896,None,1,['space'],0,,[0.1780381000135094],,,,,,quvsxs,001,fr,0,0,2022-05-17_12h50.04.194,Cluster,2022.1.1,36.59194349462968,
,,,,1,0,1,0,15,0,15,0,,,frequency,,,,,,,,,,,,,,,,,,,,,,,,,,,,,,,,,,,,,,,,,,,,,,,,,,,,,,,,,,,,,,,,,,,,,,,,,,,,,,,,,,,,,,,,,,,,,,,,,,,,,,,,,,,,,,,,,,,392.8138579998631,None,574.3491774985172,-2.0,4.7537525293361234e-05,0,"[0.4095819947180416, 0.7950797327102883, 0.41045816509362304, 0.42897045154665014]","[1447.2692374403773, 1148.6983549970344, 911.7224885582164, 723.6346187201887]",Major_3rd,"[7.089383911605467, 6.14075580409218, 5.785634017698149, 7.917063680964205]",False,393.8372440999374,396.46879149996676,396.46879149996676,397.67277079983614,None,0,3.0677655301988125,4.093647230183706,None,1,None,1,,,,,,,,quvsxs,001,fr,0,0,2022-05-17_12h50.04.194,Cluster,2022.1.1,36.59194349462968,
,,,,1,0,1,0,16,0,16,0,,,time,,,,,,,,,,,,,,,,,,,,,,,,,,,,,,,,,,,,,,,,,,,,,,,,,,,,,,,,,,,,,,,,,,,,,,,,,,,,,,,,,,,,,,,,,,,,,,,,,,,,,,,,,,,,,,,,,,,397.9756713998504,None,,,,,"[0.7225096687492378, 0.7225096687492378, 0.7225096687492378, 0.7225096687492378]","[2271.6146695064294, 1790.7716588384599, 326.1141962035046, 758.7922884692482]",None,"[5.176677237760281, 6.566156445600722, 10.0, 7.201289559200938]",True,398.97003469988704,402.14962749998085,402.14962749998085,403.35466129984707,None,1,3.9281778302975,4.9498328301124275,None,1,None,1,,,0,,,,,quvsxs,001,fr,0,0,2022-05-17_12h50.04.194,Cluster,2022.1.1,36.59194349462968,
,,,,1,0,1,0,17,0,17,0,,,time,,,,,,,,,,,,,,,,,,,,,,,,,,,,,,,,,,,,,,,,,,,,,,,,,,,,,,,,,,,,,,,,,,,,,,,,,,,,,,,,,,,,,,,,,,,,,,,,,,,,,,,,,,,,,,,,,,,403.9445256998297,None,233.2582478842019,0.0,0.0002002829937560003,1,"[0.5229930114404833, 0.5229930114404833, 0.5229930114404833, 0.5229930114404833]","[158.25843462067616, 286.77667466197147, 1422.1609842567118, 7065.18133242637]",None,"[9.0, 8.559262982701703, 7.089383911605467, 2.0]",False,404.96802459983155,407.5739554997999,407.5739554997999,408.78730540000834,['space'],1,3.1088301301933825,4.13768883026205,None,1,None,1,[0.31760530010797083],,,,,,,quvsxs,001,fr,0,0,2022-05-17_12h50.04.194,Cluster,2022.1.1,36.59194349462968,
,,,,1,0,1,0,18,0,18,0,,,both,,,,,,,,,,,,,,,,,,,,,,,,,,,,,,,,,,,,,,,,,,,,,,,,,,,,,,,,,,,,,,,,,,,,,,,,,,,,,,,,,,,,,,,,,,,,,,,,,,,,,,,,,,,,,,,,,,,409.1470359999221,None,4128.0401283345345,-1.0,8.266362377861485e-05,1,"[0.5889261929498132, 0.5889261929498132, 0.5889261929498132, 0.5889261929498132]","[1638.2138105712959, 2064.0200641672677, 2600.502326249707, 3276.427621142591]",Major_3rd,"[6.93382556238002, 5.633473004060601, 5.565799458368608, 6.469547185443853]",False,410.13304439978674,412.9249218998011,412.9249218998011,414.1485609000083,['space'],1,3.387551630148664,4.4022571300156415,None,1,None,1,[0.1843471999745816],,,,,,,quvsxs,001,fr,0,0,2022-05-17_12h50.04.194,Cluster,2022.1.1,36.59194349462968,
,,,,1,0,1,0,19,0,19,0,,,frequency,,,,,,,,,,,,,,,,,,,,,,,,,,,,,,,,,,,,,,,,,,,,,,,,,,,,,,,,,,,,,,,,,,,,,,,,,,,,,,,,,,,,,,,,,,,,,,,,,,,,,,,,,,,,,,,,,,,414.5690037999302,None,6983.317184595761,-4.091342853720048,9.410365223092051e-05,0,"[0.7767813379445854, 0.7530750953230124, 0.47522072681348465, 0.7555107048773256]","[4399.2141594824, 4937.9509364042115, 5542.662522527457, 6221.428328123767]",Tone,"[4.0, 2.253106289190758, 1.0815060227410527, 1.0192658574643438]",False,415.5731832999736,418.62028999999166,418.62028999999166,419.834197799908,None,0,3.800515130162239,4.824086030013859,None,1,None,1,,,,,,,,quvsxs,001,fr,0,0,2022-05-17_12h50.04.194,Cluster,2022.1.1,36.59194349462968,
,,,,2,0,2,0,0,0,0,0,,,none,,,,,,,,,,,,,,,,,,,,,,,,,,,,,,,,,,,,,,,,,,,,,,,,,,,,,,,,,,,,,,,,,,,,,,,,,,,,,,,,,,,,,,,,,,,,,,,,,,,,,,,,,,,,,,,,,,,423.40810949984007,None,,,,,"[0.42072643052969316, 0.786025302643044, 0.5824607288478789, 0.6991730725006443]","[1349.8350066242738, 235.04398391184102, 137.85376914530482, 1254.647730381904]",None,"[7.0, 6.896536167076867, 10.0, 6.50896343074093]",True,424.42443129979074,427.2577653999906,427.2577653999906,428.466012599878,['space'],0,3.5284569300711155,4.551031130133197,None,1,None,1,[0.2481540001463145],,0,,,,,quvsxs,001,fr,0,0,2022-05-17_12h50.04.194,Cluster,2022.1.1,36.59194349462968,
,,,,2,0,2,0,1,0,1,0,,,time,,,,,,,,,,,,,,,,,,,,,,,,,,,,,,,,,,,,,,,,,,,,,,,,,,,,,,,,,,,,,,,,,,,,,,,,,,,,,,,,,,,,,,,,,,,,,,,,,,,,,,,,,,,,,,,,,,,429.00759970000945,None,1255.196847476472,0.5089634307409295,5.7661907278473774e-05,1,"[0.5148706640474481, 0.5148706640474481, 0.5148706640474481, 0.5148706640474481]","[960.8872290522721, 3206.744161536932, 148.06860864437684, 535.0572891863567]",None,"[5.785634017698149, 6.469547185443853, 9.779158216387522, 10.754830723770002]",False,430.0108659998514,432.58671869989485,432.58671869989485,433.8083594997879,['space'],1,3.1076730301138014,4.113299430115148,None,1,None,1,[0.3466741999145597],,,,,,,quvsxs,001,fr,0,0,2022-05-17_12h50.04.194,Cluster,2022.1.1,36.59194349462968,
,,,,2,0,2,0,2,0,2,0,,,time,,,,,,,,,,,,,,,,,,,,,,,,,,,,,,,,,,,,,,,,,,,,,,,,,,,,,,,,,,,,,,,,,,,,,,,,,,,,,,,,,,,,,,,,,,,,,,,,,,,,,,,,,,,,,,,,,,,434.15933389985,None,2828.42712474619,-2.0,5.201735198753194e-05,1,"[0.6857398763401144, 0.6857398763401144, 0.6857398763401144, 0.6857398763401144]","[1216.4692140326417, 1525.5103904092991, 149.51308252100418, 4552.881947325339]",None,"[6.50896343074093, 7.124052080247171, 9.157614597598986, 3.210945256859935]",False,435.91108309989795,438.9804026999045,438.9804026999045,440.18462999979965,['space'],1,3.770222720457241,4.78386732051149,None,1,None,1,[0.3246188999619335],,,,,,,quvsxs,001,fr,0,0,2022-05-17_12h50.04.194,Cluster,2022.1.1,36.59194349462968,
,,,,2,0,2,0,3,0,3,0,,,none,,,,,,,,,,,,,,,,,,,,,,,,,,,,,,,,,,,,,,,,,,,,,,,,,,,,,,,,,,,,,,,,,,,,,,,,,,,,,,,,,,,,,,,,,,,,,,,,,,,,,,,,,,,,,,,,,,,440.72199969994836,None,5737.60175335657,-4.918493977258947,7.126531899419921e-05,1,"[0.6172132768999524, 0.6624996733899733, 0.520922021483089, 0.6405625531763013]","[7170.584537762785, 599.9800538878372, 3549.226997856068, 1379.2300662883374]",None,"[2.0, 9.439401505478198, 6.36155917072716, 7.0]",False,441.7229959999677,444.52651769993827,444.52651769993827,445.7526102999691,['space'],1,3.4919782301876694,4.4959721302147955,None,1,None,1,[0.26423639990389347],,,,,,,quvsxs,001,fr,0,0,2022-05-17_12h50.04.194,Cluster,2022.1.1,36.59194349462968,
,,,,2,0,2,0,4,0,4,0,,,frequency,,,,,,,,,,,,,,,,,,,,,,,,,,,,,,,,,,,,,,,,,,,,,,,,,,,,,,,,,,,,,,,,,,,,,,,,,,,,,,,,,,,,,,,,,,,,,,,,,,,,,,,,,,,,,,,,,,,446.2546932999976,None,2828.42712474619,-2.0,5.201735198753194e-05,1,"[0.7101264492653903, 0.69636844059638, 0.6490449191940463, 0.5982391355183821]","[1122.4620483093734, 1414.2135623730956, 1781.797436280679, 2244.9240966187463]",Major_3rd,"[6.0, 7.089383911605467, 6.566156445600722, 5.176677237760281]",False,447.27459299983457,450.37074359995313,450.37074359995313,451.5889117999468,['space'],1,3.6829390299972147,4.693197229877114,None,1,None,1,[0.21353780012577772],,,,,,,quvsxs,001,fr,0,0,2022-05-17_12h50.04.194,Cluster,2022.1.1,36.59194349462968,
,,,,2,0,2,0,5,0,5,0,,,time,,,,,,,,,,,,,,,,,,,,,,,,,,,,,,,,,,,,,,,,,,,,,,,,,,,,,,,,,,,,,,,,,,,,,,,,,,,,,,,,,,,,,,,,,,,,,,,,,,,,,,,,,,,,,,,,,,,452.00470189983025,None,,,,,"[0.6551322773423706, 0.6551322773423706, 0.6551322773423706, 0.6551322773423706]","[553.3030036289832, 1374.266735302382, 392.5163534182101, 2142.6532446895394]",None,"[10.754830723770002, 7.0, 11.254749696499829, 5.304905809411233]",True,453.00979439984076,455.9999386998825,455.9999386998825,457.2242616999429,['space'],0,3.648479730123654,4.647520630154759,None,1,None,1,[0.405357499839738],,0,,,,,quvsxs,001,fr,0,0,2022-05-17_12h50.04.194,Cluster,2022.1.1,36.59194349462968,
,,,,2,0,2,0,6,0,6,0,,,none,,,,,,,,,,,,,,,,,,,,,,,,,,,,,,,,,,,,,,,,,,,,,,,,,,,,,,,,,,,,,,,,,,,,,,,,,,,,,,,,,,,,,,,,,,,,,,,,,,,,,,,,,,,,,,,,,,,457.6830601999536,None,757.8582832551998,-1.0,3.590334647509541e-05,1,"[0.40903686657277566, 0.7444977929845942, 0.7897782821998933, 0.7147056242356159]","[466.5807749184582, 2068.596935802851, 3602.8006238864455, 2218.4684447592335]",None,"[11.55879745589758, 5.633473004060601, 6.0, 5.304905809411233]",False,458.70602519996464,461.67189939995296,461.67189939995296,462.8785713999532,['space'],1,3.665464830119163,4.67722083022818,None,1,None,1,[0.23303029988892376],,,,,,,quvsxs,001,fr,0,0,2022-05-17_12h50.04.194,Cluster,2022.1.1,36.59194349462968,
,,,,2,0,2,0,7,0,7,0,,,frequency,,,,,,,,,,,,,,,,,,,,,,,,,,,,,,,,,,,,,,,,,,,,,,,,,,,,,,,,,,,,,,,,,,,,,,,,,,,,,,,,,,,,,,,,,,,,,,,,,,,,,,,,,,,,,,,,,,,463.4295363998972,None,3021.143152025898,0.3018775615093445,5.8834462521673745e-05,1,"[0.5281937893225715, 0.4128777348658893, 0.44536532135862555, 0.41724056951389615]","[4795.765817672433, 4272.541619465626, 3806.401851983176, 3391.118530658825]",Tone,"[2.253106289190758, 4.2409436738925885, 5.919617785862145, 6.36155917072716]",False,464.4427313997876,466.84974599978887,466.84974599978887,468.07000259985216,['space'],1,2.8552544300910085,3.863990930141881,None,1,None,1,[0.4289110000245273],,,,,,,quvsxs,001,fr,0,0,2022-05-17_12h50.04.194,Cluster,2022.1.1,36.59194349462968,
,,,,2,0,2,0,8,0,8,0,,,time,,,,,,,,,,,,,,,,,,,,,,,,,,,,,,,,,,,,,,,,,,,,,,,,,,,,,,,,,,,,,,,,,,,,,,,,,,,,,,,,,,,,,,,,,,,,,,,,,,,,,,,,,,,,,,,,,,,468.3486587998923,None,4444.29662992227,-2.0,9.095885206522585e-05,1,"[0.7174942843293477, 0.7174942843293477, 0.7174942843293477, 0.7174942843293477]","[585.0934226542946, 431.1678648699271, 326.3481336557283, 3394.057668833505]",None,"[10.0, 11.671229488450555, 10.0, 6.36155917072716]",False,469.3531434999313,472.5322224998381,472.5322224998381,473.7340504999738,['space'],1,3.9094446301460266,4.9266518300864846,None,1,None,1,[0.19366930006071925],,,,,,,quvsxs,001,fr,0,0,2022-05-17_12h50.04.194,Cluster,2022.1.1,36.59194349462968,
,,,,2,0,2,0,9,0,9,0,,,time,,,,,,,,,,,,,,,,,,,,,,,,,,,,,,,,,,,,,,,,,,,,,,,,,,,,,,,,,,,,,,,,,,,,,,,,,,,,,,,,,,,,,,,,,,,,,,,,,,,,,,,,,,,,,,,,,,,474.31263959989883,None,,,,,"[0.750086498472939, 0.750086498472939, 0.750086498472939, 0.750086498472939]","[831.8003061832525, 879.0306872205917, 215.63231467267096, 3895.254635790615]",None,"[6.566281837311289, 6.085324619050359, 6.75705146153416, 5.190708467321604]",True,475.3190163997933,478.5963149999734,478.5963149999734,479.8163500998635,None,1,4.048744630068541,5.056677430169657,None,1,None,1,,,0,,,,,quvsxs,001,fr,0,0,2022-05-17_12h50.04.194,Cluster,2022.1.1,36.59194349462968,
,,,,2,0,2,0,10,0,10,0,,,time,,,,,,,,,,,,,,,,,,,,,,,,,,,,,,,,,,,,,,,,,,,,,,,,,,,,,,,,,,,,,,,,,,,,,,,,,,,,,,,,,,,,,,,,,,,,,,,,,,,,,,,,,,,,,,,,,,,480.39666579989716,None,353.5533905932738,-7.0,3.9581673965746926e-05,0,"[0.5517312051473439, 0.5517312051473439, 0.5517312051473439, 0.5517312051473439]","[1175.707525008267, 5186.737808393763, 2480.389619106897, 186.80911191250425]",None,"[6.14075580409218, 1.504103727551139, 5.277906663124167, 7.241812043660456]",False,481.41313319979236,484.10003490000963,484.10003490000963,485.3104753999505,None,0,3.233215430052951,4.233616930199787,None,1,None,1,,,,,,,,quvsxs,001,fr,0,0,2022-05-17_12h50.04.194,Cluster,2022.1.1,36.59194349462968,
,,,,2,0,2,0,11,0,11,0,,,none,,,,,,,,,,,,,,,,,,,,,,,,,,,,,,,,,,,,,,,,,,,,,,,,,,,,,,,,,,,,,,,,,,,,,,,,,,,,,,,,,,,,,,,,,,,,,,,,,,,,,,,,,,,,,,,,,,,485.6899381999392,None,3536.691140268885,0.3615591707271604,7.902938145816256e-05,1,"[0.7064322599926987, 0.5321034195613665, 0.6168320023258502, 0.7575238528967485]","[1120.062894121532, 143.43654735325626, 539.5206748447939, 2072.5817566748783]",None,"[6.0, 9.779158216387522, 10.754830723770002, 5.304905809411233]",False,486.6985783998389,489.59027879987843,489.59027879987843,490.80036009987816,['space'],1,3.6529641305096447,4.658640330424532,None,1,None,1,[0.2229173998348415],,,,,,,quvsxs,001,fr,0,0,2022-05-17_12h50.04.194,Cluster,2022.1.1,36.59194349462968,
,,,,2,0,2,0,12,0,12,0,,,time,,,,,,,,,,,,,,,,,,,,,,,,,,,,,,,,,,,,,,,,,,,,,,,,,,,,,,,,,,,,,,,,,,,,,,,,,,,,,,,,,,,,,,,,,,,,,,,,,,,,,,,,,,,,,,,,,,,491.3890854998026,None,3105.428316516329,0.3018775615093445,6.709291050521219e-05,1,"[0.5017896235872403, 0.5017896235872403, 0.5017896235872403, 0.5017896235872403]","[2725.2551535809157, 208.23478398735577, 174.7803168928718, 1920.9162002454298]",None,"[5.565799458368608, 6.876039654364539, 8.0, 6.0]",False,492.3997829,494.92135019996203,494.92135019996203,496.1351044999901,['space'],1,3.0538236300926656,4.067780330078676,None,1,None,1,[0.2668287998531014],,,,,,,quvsxs,001,fr,0,0,2022-05-17_12h50.04.194,Cluster,2022.1.1,36.59194349462968,
,,,,2,0,2,0,13,0,13,0,,,time,,,,,,,,,,,,,,,,,,,,,,,,,,,,,,,,,,,,,,,,,,,,,,,,,,,,,,,,,,,,,,,,,,,,,,,,,,,,,,,,,,,,,,,,,,,,,,,,,,,,,,,,,,,,,,,,,,,496.49576219986193,None,,,,,"[0.7769725936056218, 0.7769725936056218, 0.7769725936056218, 0.7769725936056218]","[258.7048979054905, 209.9515900796938, 436.718320961931, 2935.934807290589]",None,"[7.280743668337028, 6.876039654364539, 11.671229488450555, 6.0]",True,497.499226299813,500.8583234997932,500.8583234997932,502.0643899999559,None,1,4.1462337302509695,5.1729744302574545,None,1,None,1,,,0,,,,,quvsxs,001,fr,0,0,2022-05-17_12h50.04.194,Cluster,2022.1.1,36.59194349462968,
,,,,2,0,2,0,14,0,14,0,,,both,,,,,,,,,,,,,,,,,,,,,,,,,,,,,,,,,,,,,,,,,,,,,,,,,,,,,,,,,,,,,,,,,,,,,,,,,,,,,,,,,,,,,,,,,,,,,,,,,,,,,,,,,,,,,,,,,,,502.6964241999667,None,615.5722066724584,-1.0,4.760651710325358e-05,0,"[0.5784816085685208, 0.5784816085685208, 0.5784816085685208, 0.5784816085685208]","[1551.1447618337352, 1231.1444133449168, 977.1599684342464, 775.5723809168676]",Major_3rd,"[7.0, 6.50896343074093, 5.7085702773578575, 7.0]",False,503.7735623999033,506.5564493997954,506.5564493997954,507.7705516999122,None,0,3.328619270119816,4.332250070059672,None,1,None,1,,,,,,,,quvsxs,001,fr,0,0,2022-05-17_12h50.04.194,Cluster,2022.1.1,36.59194349462968,
,,,,2,0,2,0,15,0,15,0,,,none,,,,,,,,,,,,,,,,,,,,,,,,,,,,,,,,,,,,,,,,,,,,,,,,,,,,,,,,,,,,,,,,,,,,,,,,,,,,,,,,,,,,,,,,,,,,,,,,,,,,,,,,,,,,,,,,,,,508.1466284999624,None,1231.1444133449168,-5.0,3.020928508603416e-05,0,"[0.5143626192170041, 0.5527430241482273, 0.41723830458917077, 0.6232216122977321]","[393.3811389885259, 644.205055451913, 1198.4075468751857, 489.3316747804431]",None,"[11.570024076097177, 9.0, 6.50896343074093, 11.248238492631339]",False,509.17495339992456,511.67345119989477,511.67345119989477,512.8815758998971,None,0,3.1314406304154545,4.15596613031812,None,1,None,1,,,,,,,,quvsxs,001,fr,0,0,2022-05-17_12h50.04.194,Cluster,2022.1.1,36.59194349462968,
,,,,2,0,2,0,16,0,16,0,,,frequency,,,,,,,,,,,,,,,,,,,,,,,,,,,,,,,,,,,,,,,,,,,,,,,,,,,,,,,,,,,,,,,,,,,,,,,,,,,,,,,,,,,,,,,,,,,,,,,,,,,,,,,,,,,,,,,,,,,513.3729191999882,None,203.0630990890589,2.0,0.00032661690408859664,1,"[0.49911102137786423, 0.5893106634156337, 0.7785567716239867, 0.4875158877396565]","[127.92173649959686, 143.58729437462938, 161.1712885549474, 180.90865468004728]",Tone,"[10.55968581726599, 9.779158216387522, 8.460699112274225, 7.787190183442288]",False,514.3996515998151,517.3089060999919,517.3089060999919,518.521795099834,['space'],1,3.3650585301220417,4.370918630156666,None,1,None,1,[0.2781443998683244],,,,,,,quvsxs,001,fr,0,0,2022-05-17_12h50.04.194,Cluster,2022.1.1,36.59194349462968,
,,,,2,0,2,0,17,0,17,0,,,time,,,,,,,,,,,,,,,,,,,,,,,,,,,,,,,,,,,,,,,,,,,,,,,,,,,,,,,,,,,,,,,,,,,,,,,,,,,,,,,,,,,,,,,,,,,,,,,,,,,,,,,,,,,,,,,,,,,518.8185846998822,None,1624.5047927124701,-5.0,3.2535386698309576e-05,1,"[0.46563462799532335, 0.46563462799532335, 0.46563462799532335, 0.46563462799532335]","[869.4723767472896, 618.9926349969588, 1572.6230434625263, 2776.4495848411357]",None,"[6.085324619050359, 9.439401505478198, 7.0, 5.950210366582112]",False,519.8376829999033,522.2739232999738,522.2739232999738,523.481005199952,['space'],1,2.8920777302701026,3.8910923302173615,None,1,None,1,[0.315572899999097],,,,,,,quvsxs,001,fr,0,0,2022-05-17_12h50.04.194,Cluster,2022.1.1,36.59194349462968,
,,,,2,0,2,0,18,0,18,0,,,none,,,,,,,,,,,,,,,,,,,,,,,,,,,,,,,,,,,,,,,,,,,,,,,,,,,,,,,,,,,,,,,,,,,,,,,,,,,,,,,,,,,,,,,,,,,,,,,,,,,,,,,,,,,,,,,,,,,523.7758309999481,None,,,,,"[0.6376688274842786, 0.6453960599945866, 0.5566955844180226, 0.4830587015220752]","[483.309715836332, 1831.6309916334442, 2066.256462086903, 172.60453649453336]",None,"[11.248238492631339, 6.1002107947482305, 5.633473004060601, 8.0]",True,524.7803069998045,527.65663089999,527.65663089999,528.8729669000022,None,1,3.35195443010889,4.354719530092552,None,1,None,1,,,0,,,,,quvsxs,001,fr,0,0,2022-05-17_12h50.04.194,Cluster,2022.1.1,36.59194349462968,
,,,,2,0,2,0,19,0,19,0,,,none,,,,,,,,,,,,,,,,,,,,,,,,,,,,,,,,,,,,,,,,,,,,,,,,,,,,,,,,,,,,,,,,,,,,,,,,,,,,,,,,,,,,,,,,,,,,,,,,,,,,,,,,,,,,,,,,,,,529.1656142999418,None,275.54481704768455,2.0,0.00017677869831622193,1,"[0.5426877379645381, 0.5302847071618766, 0.6310860553509832, 0.4932200180433599]","[1190.529930165727, 1454.3051637998847, 278.0201850025681, 168.08122132976828]",None,"[6.50896343074093, 7.089383911605467, 8.0, 8.460699112274225]",False,530.1779928999022,532.9155195998028,532.9155195998028,534.1166234998964,['space'],1,3.235043730121106,4.238684830022976,None,1,None,1,[0.3144839000888169],,,,,,,quvsxs,001,fr,0,0,2022-05-17_12h50.04.194,Cluster,2022.1.1,36.59194349462968,
,,,,3,0,3,0,0,0,0,0,,,both,,,,,,,,,,,,,,,,,,,,,,,,,,,,,,,,,,,,,,,,,,,,,,,,,,,,,,,,,,,,,,,,,,,,,,,,,,,,,,,,,,,,,,,,,,,,,,,,,,,,,,,,,,,,,,,,,,,537.6064054998569,None,1553.6317573703639,1.0,5.927999719681217e-05,1,"[0.7418085829185145, 0.7418085829185145, 0.7418085829185145, 0.7418085829185145]","[3914.9067097921716, 3107.2635147407277, 2466.236686020918, 1957.4533548960858]",Major_3rd,"[5.190708467321604, 6.301877561509345, 5.277906663124167, 5.633473004060601]",False,538.5871475997847,541.835122599965,541.835122599965,543.0507762997877,['space'],1,4.015453830128536,5.02129593025893,None,1,None,1,[0.34891739999875426],,,,,,,quvsxs,001,fr,0,0,2022-05-17_12h50.04.194,Cluster,2022.1.1,36.59194349462968,
,,,,3,0,3,0,1,0,1,0,,,frequency,,,,,,,,,,,,,,,,,,,,,,,,,,,,,,,,,,,,,,,,,,,,,,,,,,,,,,,,,,,,,,,,,,,,,,,,,,,,,,,,,,,,,,,,,,,,,,,,,,,,,,,,,,,,,,,,,,,543.6439338999335,None,304.0048247807026,3.3301685266135923,0.00016179456408119749,1,"[0.420130073166891, 0.5966698402266404, 0.6333433135023587, 0.6067658289064094]","[482.57757866029556, 429.9277462317261, 383.0220780108098, 341.2338783192795]",Tone,"[11.55879745589758, 11.671229488450555, 11.254749696499829, 10.078427558440119]",False,544.6479365997948,547.324901699787,547.324901699787,548.5399870998226,['space'],1,3.2988451302517205,4.306216430151835,None,1,None,1,[0.3878197001758963],,,,,,,quvsxs,001,fr,0,0,2022-05-17_12h50.04.194,Cluster,2022.1.1,36.59194349462968,
,,,,3,0,3,0,2,0,2,0,,,none,,,,,,,,,,,,,,,,,,,,,,,,,,,,,,,,,,,,,,,,,,,,,,,,,,,,,,,,,,,,,,,,,,,,,,,,,,,,,,,,,,,,,,,,,,,,,,,,,,,,,,,,,,,,,,,,,,,548.9949142998084,None,125.0,3.0,0.001020868972334765,1,"[0.5305900536820756, 0.769379454068142, 0.4705528259529584, 0.6230644065854329]","[2585.8268240666657, 1178.7408015814485, 185.2324817567561, 147.918110824419]",None,"[5.565799458368608, 6.14075580409218, 7.241812043660456, 9.779158216387522]",False,550.0187467997894,552.811966399895,552.811966399895,554.0261705999728,['space'],1,3.418777730083093,4.424174430081621,None,1,None,1,[0.3734079001005739],,,,,,,quvsxs,001,fr,0,0,2022-05-17_12h50.04.194,Cluster,2022.1.1,36.59194349462968,
,,,,3,0,3,0,3,0,3,0,,,frequency,,,,,,,,,,,,,,,,,,,,,,,,,,,,,,,,,,,,,,,,,,,,,,,,,,,,,,,,,,,,,,,,,,,,,,,,,,,,,,,,,,,,,,,,,,,,,,,,,,,,,,,,,,,,,,,,,,,554.4993386999704,None,,,,,"[0.4341388080035371, 0.42120479914340875, 0.428335660194494, 0.4183923756804846]","[776.2535645554153, 616.1128624846655, 489.00910301964825, 388.1267822777076]",Major_3rd,"[7.0, 9.439401505478198, 11.248238492631339, 11.254749696499829]",True,555.506088799797,557.8080311999656,557.8080311999656,559.0062094999012,None,1,2.7457302301190794,3.7839193302206695,None,1,None,1,,,0,,,,,quvsxs,001,fr,0,0,2022-05-17_12h50.04.194,Cluster,2022.1.1,36.59194349462968,
,,,,3,0,3,0,4,0,4,0,,,both,,,,,,,,,,,,,,,,,,,,,,,,,,,,,,,,,,,,,,,,,,,,,,,,,,,,,,,,,,,,,,,,,,,,,,,,,,,,,,,,,,,,,,,,,,,,,,,,,,,,,,,,,,,,,,,,,,,559.317450299859,None,233.2582478842019,-2.0,0.000159090436875498,0,"[0.5651660806207613, 0.5651660806207613, 0.5651660806207613, 0.5651660806207613]","[587.7739531418044, 466.5164957684038, 370.2743880716411, 293.8869765709022]",Major_3rd,"[10.0, 11.55879745589758, 11.0, 9.0]",False,560.338682099944,563.0466165000107,563.0466165000107,564.262352099875,None,0,3.285323830321431,4.293910630280152,None,1,None,1,,,,,,,,quvsxs,001,fr,0,0,2022-05-17_12h50.04.194,Cluster,2022.1.1,36.59194349462968,
,,,,3,0,3,0,5,0,5,0,,,frequency,,,,,,,,,,,,,,,,,,,,,,,,,,,,,,,,,,,,,,,,,,,,,,,,,,,,,,,,,,,,,,,,,,,,,,,,,,,,,,,,,,,,,,,,,,,,,,,,,,,,,,,,,,,,,,,,,,,564.6746228998527,None,757.8582832551998,-1.0,3.590334647509541e-05,0,"[0.7504848562138526, 0.43762184021366424, 0.5043198438713739, 0.7917567026695107]","[477.4208019552087, 535.8867312681471, 601.5125180410589, 675.1749730840957]",Tone,"[11.55879745589758, 10.754830723770002, 9.439401505478198, 8.679293836948103]",False,565.7047257998493,568.4322067999747,568.4322067999747,569.6551708998159,None,0,3.5150952304247767,4.522812930401415,None,1,None,1,,,,,,,,quvsxs,001,fr,0,0,2022-05-17_12h50.04.194,Cluster,2022.1.1,36.59194349462968,
,,,,3,0,3,0,6,0,6,0,,,none,,,,,,,,,,,,,,,,,,,,,,,,,,,,,,,,,,,,,,,,,,,,,,,,,,,,,,,,,,,,,,,,,,,,,,,,,,,,,,,,,,,,,,,,,,,,,,,,,,,,,,,,,,,,,,,,,,,570.2698067999445,None,6299.246314412375,-4.684532983550292,7.579223010973064e-05,1,"[0.7669297652870644, 0.672568192265014, 0.48291503359552856, 0.7794128034993331]","[163.89006985289646, 454.16035988101055, 7723.416897348121, 4388.832190640648]",None,"[8.460699112274225, 11.55879745589758, 3.0000000000000004, 4.0]",False,571.2762437998317,574.227996799862,574.227996799862,575.4539138998371,['space'],1,3.7521638304460794,4.760368430521339,None,1,None,1,[0.2753763000946492],,,,,,,quvsxs,001,fr,0,0,2022-05-17_12h50.04.194,Cluster,2022.1.1,36.59194349462968,
,,,,3,0,3,0,7,0,7,0,,,frequency,,,,,,,,,,,,,,,,,,,,,,,,,,,,,,,,,,,,,,,,,,,,,,,,,,,,,,,,,,,,,,,,,,,,,,,,,,,,,,,,,,,,,,,,,,,,,,,,,,,,,,,,,,,,,,,,,,,576.071263599908,None,157.8695095286646,3.0,0.0006075164216537398,0,"[0.5301819468722117, 0.6136557043245902, 0.5230299341906295, 0.4751095281587474]","[250.60222549950592, 223.26120146062607, 198.9031181917438, 177.20253303114094]",Tone,"[7.280743668337028, 6.75705146153416, 7.0, 7.787190183442288]",False,577.0750012998469,579.772532899864,579.772532899864,580.9907235999126,None,0,3.178325130371377,4.184768330305815,None,1,None,1,,,,,,,,quvsxs,001,fr,0,0,2022-05-17_12h50.04.194,Cluster,2022.1.1,36.59194349462968,
,,,,3,0,3,0,8,0,8,0,,,none,,,,,,,,,,,,,,,,,,,,,,,,,,,,,,,,,,,,,,,,,,,,,,,,,,,,,,,,,,,,,,,,,,,,,,,,,,,,,,,,,,,,,,,,,,,,,,,,,,,,,,,,,,,,,,,,,,,581.2953484999016,None,435.2752816480623,3.0,0.00010558989463529619,1,"[0.546255347627742, 0.61709527758664, 0.7766524421549252, 0.5737467648825193]","[761.2445952825511, 1908.0272099426602, 630.6692295484291, 1830.1614295584457]",None,"[7.201289559200938, 6.0, 9.0, 6.1002107947482305]",False,582.3035478999373,585.2817844999954,585.2817844999954,586.4925364998635,['space'],1,3.5270305301528424,4.531019330024719,None,1,None,1,[0.3389622000977397],,,,,,,quvsxs,001,fr,0,0,2022-05-17_12h50.04.194,Cluster,2022.1.1,36.59194349462968,
,,,,3,0,3,0,9,0,9,0,,,time,,,,,,,,,,,,,,,,,,,,,,,,,,,,,,,,,,,,,,,,,,,,,,,,,,,,,,,,,,,,,,,,,,,,,,,,,,,,,,,,,,,,,,,,,,,,,,,,,,,,,,,,,,,,,,,,,,,586.8782207998447,None,,,,,"[0.7370173275400301, 0.7370173275400301, 0.7370173275400301, 0.7370173275400301]","[790.5594603730049, 4465.14890386638, 473.0793724007912, 4589.7557817163915]",None,"[7.0, 4.0, 11.55879745589758, 3.210945256859935]",True,587.8835587999783,591.1112322998233,591.1112322998233,592.3316546999849,None,1,3.9954913302790374,5.007760030217469,None,1,None,1,,,0,,,,,quvsxs,001,fr,0,0,2022-05-17_12h50.04.194,Cluster,2022.1.1,36.59194349462968,
,,,,3,0,3,0,10,0,10,0,,,frequency,,,,,,,,,,,,,,,,,,,,,,,,,,,,,,,,,,,,,,,,,,,,,,,,,,,,,,,,,,,,,,,,,,,,,,,,,,,,,,,,,,,,,,,,,,,,,,,,,,,,,,,,,,,,,,,,,,,592.9180687000044,None,435.2752816480623,-1.0,6.662271952302988e-05,0,"[0.6934227026728602, 0.656474606737794, 0.6218675680303651, 0.6945808903741466]","[172.73910999597217, 217.63764082403122, 274.2062449236567, 345.47821999194423]",Major_3rd,"[8.0, 6.75705146153416, 8.0, 10.735160218967797]",False,593.9430798999965,596.9506048997864,596.9506048997864,598.1574706998654,None,0,3.6812560299877077,4.6956552299670875,None,1,None,1,,,,,,,,quvsxs,001,fr,0,0,2022-05-17_12h50.04.194,Cluster,2022.1.1,36.59194349462968,
,,,,3,0,3,0,11,0,11,0,,,frequency,,,,,,,,,,,,,,,,,,,,,,,,,,,,,,,,,,,,,,,,,,,,,,,,,,,,,,,,,,,,,,,,,,,,,,,,,,,,,,,,,,,,,,,,,,,,,,,,,,,,,,,,,,,,,,,,,,,598.6810880999546,None,5513.247131297343,-4.918493977258947,7.596164173079043e-05,1,"[0.7057888601799928, 0.728635142827674, 0.6351257682170183, 0.7986671233463545]","[1093.9667869977575, 1639.0981788267852, 2455.872401031853, 3679.650998372153]",Perfect_5th,"[6.0, 6.93382556238002, 5.277906663124167, 6.0]",False,599.6890145998914,602.8008765999693,602.8008765999693,604.0072708998341,['space'],1,3.9209483300801367,4.934822829905897,None,1,None,1,[0.2533268998377025],,,,,,,quvsxs,001,fr,0,0,2022-05-17_12h50.04.194,Cluster,2022.1.1,36.59194349462968,
,,,,3,0,3,0,12,0,12,0,,,none,,,,,,,,,,,,,,,,,,,,,,,,,,,,,,,,,,,,,,,,,,,,,,,,,,,,,,,,,,,,,,,,,,,,,,,,,,,,,,,,,,,,,,,,,,,,,,,,,,,,,,,,,,,,,,,,,,,604.655410700012,None,334.93566105095096,4.0784275584401195,0.00014944469878907623,0,"[0.5781143708341853, 0.5064353411443366, 0.7665933933082627, 0.4184159659681028]","[195.89122384975178, 5896.986764485428, 1127.1592385174126, 274.56406640390844]",None,"[7.0, 1.0192658574643438, 6.0, 8.0]",False,605.6620313997846,608.534075899981,608.534075899981,609.7390633998439,None,0,3.3191536301746964,4.347634330159053,None,1,None,1,,,,,,,,quvsxs,001,fr,0,0,2022-05-17_12h50.04.194,Cluster,2022.1.1,36.59194349462968,
,,,,3,0,3,0,13,0,13,0,,,time,,,,,,,,,,,,,,,,,,,,,,,,,,,,,,,,,,,,,,,,,,,,,,,,,,,,,,,,,,,,,,,,,,,,,,,,,,,,,,,,,,,,,,,,,,,,,,,,,,,,,,,,,,,,,,,,,,,610.0456814998761,None,,,,,"[0.471668280704127, 0.471668280704127, 0.471668280704127, 0.471668280704127]","[245.54939224250086, 1176.435069554717, 166.5425463414348, 4472.257080370217]",None,"[7.280743668337028, 6.14075580409218, 8.460699112274225, 4.0]",True,611.0599086999428,613.4920830999035,613.4920830999035,614.7017212999053,['space'],0,2.911966730374843,3.938731530448422,None,1,['space'],0,[0.017659800127148628],[-1.1905738001223654],0,,,,,quvsxs,001,fr,0,0,2022-05-17_12h50.04.194,Cluster,2022.1.1,36.59194349462968,
,,,,3,0,3,0,14,0,14,0,,,both,,,,,,,,,,,,,,,,,,,,,,,,,,,,,,,,,,,,,,,,,,,,,,,,,,,,,,,,,,,,,,,,,,,,,,,,,,,,,,,,,,,,,,,,,,,,,,,,,,,,,,,,,,,,,,,,,,,615.0325595999602,None,788.6752415868938,1.0,4.362744379638549e-05,0,"[0.7920218188913157, 0.7920218188913157, 0.7920218188913157, 0.7920218188913157]","[1987.3370768125042, 1577.3504831737878, 1251.9439081563091, 993.668538406252]",Major_3rd,"[5.633473004060601, 7.0, 6.50896343074093, 5.7085702773578575]",False,616.0455221999437,619.4601040999405,619.4601040999405,620.6851791997906,None,0,4.194683630252257,5.197154430206865,None,1,None,1,,,,,,,,quvsxs,001,fr,0,0,2022-05-17_12h50.04.194,Cluster,2022.1.1,36.59194349462968,
,,,,3,0,3,0,15,0,15,0,,,none,,,,,,,,,,,,,,,,,,,,,,,,,,,,,,,,,,,,,,,,,,,,,,,,,,,,,,,,,,,,,,,,,,,,,,,,,,,,,,,,,,,,,,,,,,,,,,,,,,,,,,,,,,,,,,,,,,,621.2803463998716,None,2462.2888266898335,-4.0,5.366889446213605e-05,1,"[0.7401213031169814, 0.6749380089279622, 0.532177071073941, 0.4751343427202173]","[559.4254416165278, 255.47007551007076, 764.4000328741155, 5221.105987875723]",None,"[10.146867375390293, 7.280743668337028, 7.201289559200938, 1.504103727551139]",False,622.3046341999434,625.2803533999249,625.2803533999249,626.4902863998432,['space'],1,3.444395430153236,4.473736130166799,None,1,None,1,[0.6654898999258876],,,,,,,quvsxs,001,fr,0,0,2022-05-17_12h50.04.194,Cluster,2022.1.1,36.59194349462968,
,,,,3,0,3,0,16,0,16,0,,,time,,,,,,,,,,,,,,,,,,,,,,,,,,,,,,,,,,,,,,,,,,,,,,,,,,,,,,,,,,,,,,,,,,,,,,,,,,,,,,,,,,,,,,,,,,,,,,,,,,,,,,,,,,,,,,,,,,,626.8214102999773,None,739.1796148034731,1.2012895592009383,4.77592522589865e-05,1,"[0.4273884765017301, 0.4273884765017301, 0.4273884765017301, 0.4273884765017301]","[4624.7415124693625, 5710.32130317267, 444.3918627697538, 181.40602453242082]",None,"[3.210945256859935, 1.0815060227410527, 11.671229488450555, 7.787190183442288]",False,627.838269099826,630.1509192998055,630.1509192998055,631.362319199834,['space'],1,2.7362473304383457,3.7397240304853767,None,1,None,1,[0.5450599999167025],,,,,,,quvsxs,001,fr,0,0,2022-05-17_12h50.04.194,Cluster,2022.1.1,36.59194349462968,
,,,,3,0,3,0,17,0,17,0,,,none,,,,,,,,,,,,,,,,,,,,,,,,,,,,,,,,,,,,,,,,,,,,,,,,,,,,,,,,,,,,,,,,,,,,,,,,,,,,,,,,,,,,,,,,,,,,,,,,,,,,,,,,,,,,,,,,,,,631.6157611999661,None,980.6677061549842,-0.2914297226421427,4.206758327753896e-05,0,"[0.5062107987969733, 0.616839471458954, 0.4098345605816398, 0.6718737613308248]","[873.8701325058975, 639.5785621961958, 6222.974750525455, 185.56606546976812]",None,"[6.085324619050359, 9.0, 1.0192658574643438, 7.241812043660456]",False,632.6277547997888,635.1768051998224,635.1768051998224,636.402184000006,None,0,3.2507302302401513,4.282645230181515,None,1,None,1,,,,,,,,quvsxs,001,fr,0,0,2022-05-17_12h50.04.194,Cluster,2022.1.1,36.59194349462968,
,,,,3,0,3,0,18,0,18,0,,,none,,,,,,,,,,,,,,,,,,,,,,,,,,,,,,,,,,,,,,,,,,,,,,,,,,,,,,,,,,,,,,,,,,,,,,,,,,,,,,,,,,,,,,,,,,,,,,,,,,,,,,,,,,,,,,,,,,,636.9431930999272,None,1515.7165665103996,-3.0,3.5135546789290564e-05,0,"[0.7066898046050081, 0.4160750121799349, 0.5367525100070474, 0.7516746105941193]","[5160.4003618139, 300.6921764308122, 6198.7010106191765, 2359.7472606806696]",None,"[1.504103727551139, 9.0, 1.0192658574643438, 5.176677237760281]",False,639.0087733999826,641.6992122000083,641.6992122000083,642.9217626999598,None,0,3.4528812903445214,4.472448990447447,None,1,None,1,,,,,,,,quvsxs,001,fr,0,0,2022-05-17_12h50.04.194,Cluster,2022.1.1,36.59194349462968,
,,,,3,0,3,0,19,0,19,0,,,both,,,,,,,,,,,,,,,,,,,,,,,,,,,,,,,,,,,,,,,,,,,,,,,,,,,,,,,,,,,,,,,,,,,,,,,,,,,,,,,,,,,,,,,,,,,,,,,,,,,,,,,,,,,,,,,,,,,643.5257454998791,None,,,,,"[0.656356451451527, 0.656356451451527, 0.656356451451527, 0.656356451451527]","[828.452553496666, 929.9065501249981, 1043.784810989608, 1171.6088369376073]",Tone,"[6.566281837311289, 5.785634017698149, 5.839735171374016, 6.14075580409218]",True,644.5218454999849,647.5078759999014,647.5078759999014,648.7390091000125,None,1,3.6691634303424507,4.688695030286908,None,1,None,1,,,0,,,,,quvsxs,001,fr,0,0,2022-05-17_12h50.04.194,Cluster,2022.1.1,36.59194349462968,
,,,,4,0,4,0,0,0,0,0,,,frequency,,,,,,,,,,,,,,,,,,,,,,,,,,,,,,,,,,,,,,,,,,,,,,,,,,,,,,,,,,,,,,,,,,,,,,,,,,,,,,,,,,,,,,,,,,,,,,,,,,,,,,,,,,,,,,,,,,,650.2906201998703,None,574.3491774985172,4.0,9.484983276472362e-05,1,"[0.4023309582602755, 0.7922454222725805, 0.7432694976034417, 0.6202344182947779]","[1447.2692374403773, 1148.6983549970344, 911.7224885582164, 723.6346187201887]",Major_3rd,"[7.089383911605467, 6.14075580409218, 5.785634017698149, 7.917063680964205]",False,651.314641600009,654.2879297998734,654.2879297998734,655.4972580999602,['space'],1,3.58687213039957,4.602388430386782,None,1,None,1,[0.2835544999688864],,,,,,,quvsxs,001,fr,0,0,2022-05-17_12h50.04.194,Cluster,2022.1.1,36.59194349462968,
,,,,4,0,4,0,1,0,1,0,,,time,,,,,,,,,,,,,,,,,,,,,,,,,,,,,,,,,,,,,,,,,,,,,,,,,,,,,,,,,,,,,,,,,,,,,,,,,,,,,,,,,,,,,,,,,,,,,,,,,,,,,,,,,,,,,,,,,,,655.9730581999756,None,5656.85424949238,-4.0,8.109296367558474e-05,1,"[0.6964569327845721, 0.6964569327845721, 0.6964569327845721, 0.6964569327845721]","[499.85674960108133, 5580.953105804554, 1107.5679379054, 2624.362776125479]",None,"[11.248238492631339, 1.0815060227410527, 6.0, 5.565799458368608]",False,656.9918773998506,660.1248423999641,660.1248423999641,661.3548120998312,['space'],1,3.819266030099243,4.847690130118281,None,1,None,1,[0.24694360001012683],,,,,,,quvsxs,001,fr,0,0,2022-05-17_12h50.04.194,Cluster,2022.1.1,36.59194349462968,
,,,,4,0,4,0,2,0,2,0,,,frequency,,,,,,,,,,,,,,,,,,,,,,,,,,,,,,,,,,,,,,,,,,,,,,,,,,,,,,,,,,,,,,,,,,,,,,,,,,,,,,,,,,,,,,,,,,,,,,,,,,,,,,,,,,,,,,,,,,,661.890379599994,None,3690.5090959659906,0.0,7.850736565328034e-05,1,"[0.4612471780437165, 0.45124464765071776, 0.6513346203352428, 0.6440827801482747]","[2324.8750474180247, 2609.5840077881867, 2929.1590106173107, 3287.8698228813632]",Tone,"[5.176677237760281, 5.565799458368608, 6.0, 6.469547185443853]",False,662.9096883998718,665.504158699885,665.504158699885,666.730826899875,['space'],1,3.2423503301106393,4.271651230286807,None,1,None,1,[0.34279430005699396],,,,,,,quvsxs,001,fr,0,0,2022-05-17_12h50.04.194,Cluster,2022.1.1,36.59194349462968,
,,,,4,0,4,0,3,0,3,0,,,none,,,,,,,,,,,,,,,,,,,,,,,,,,,,,,,,,,,,,,,,,,,,,,,,,,,,,,,,,,,,,,,,,,,,,,,,,,,,,,,,,,,,,,,,,,,,,,,,,,,,,,,,,,,,,,,,,,,667.219928599894,None,151.70266730300278,3.1576145975989864,0.0006976126798828249,0,"[0.760398897701813, 0.45935371769454997, 0.4602623595872036, 0.7405542471916062]","[1934.0926760010175, 3575.4537876855234, 794.3411609429472, 3278.606443638368]",None,"[6.0, 6.36155917072716, 6.566281837311289, 6.469547185443853]",False,668.2284938998055,670.9257671998348,670.9257671998348,672.1286660998594,None,0,3.474987730383873,4.4915749304927886,None,1,None,1,,,,,,,,quvsxs,001,fr,0,0,2022-05-17_12h50.04.194,Cluster,2022.1.1,36.59194349462968,
,,,,4,0,4,0,4,0,4,0,,,time,,,,,,,,,,,,,,,,,,,,,,,,,,,,,,,,,,,,,,,,,,,,,,,,,,,,,,,,,,,,,,,,,,,,,,,,,,,,,,,,,,,,,,,,,,,,,,,,,,,,,,,,,,,,,,,,,,,672.7600878998637,None,169.9109069726213,2.0,0.0004721297917814617,0,"[0.5973177839366324, 0.5973177839366324, 0.5973177839366324, 0.5973177839366324]","[3130.023079052385, 237.99533155532114, 168.5345903146762, 167.57135629051606]",None,"[6.301877561509345, 7.0, 8.460699112274225, 8.460699112274225]",False,673.7568717999384,676.5749518999364,676.5749518999364,677.7851080999244,None,0,3.4211050299927592,4.42527923011221,None,1,None,1,,,,,,,,quvsxs,001,fr,0,0,2022-05-17_12h50.04.194,Cluster,2022.1.1,36.59194349462968,
,,,,4,0,4,0,5,0,5,0,,,none,,,,,,,,,,,,,,,,,,,,,,,,,,,,,,,,,,,,,,,,,,,,,,,,,,,,,,,,,,,,,,,,,,,,,,,,,,,,,,,,,,,,,,,,,,,,,,,,,,,,,,,,,,,,,,,,,,,678.219816399971,None,,,,,"[0.5992506568983105, 0.47270323614344856, 0.466279204169485, 0.5543126959052392]","[240.3463870124947, 325.0891335039378, 194.75766794515474, 191.9503917732898]",None,"[7.0, 10.0, 7.0, 7.241812043660456]",True,679.2237465998624,681.7820563998539,681.7820563998539,683.0088457998354,None,1,3.13628513016738,4.147069930098951,None,1,None,1,,,0,,,,,quvsxs,001,fr,0,0,2022-05-17_12h50.04.194,Cluster,2022.1.1,36.59194349462968,
,,,,4,0,4,0,6,0,6,0,,,both,,,,,,,,,,,,,,,,,,,,,,,,,,,,,,,,,,,,,,,,,,,,,,,,,,,,,,,,,,,,,,,,,,,,,,,,,,,,,,,,,,,,,,,,,,,,,,,,,,,,,,,,,,,,,,,,,,,683.4012666998897,None,500.0,3.0,0.0001009183181840781,1,"[0.6457155153211939, 0.6457155153211939, 0.6457155153211939, 0.6457155153211939]","[314.98026247371826, 353.5533905932737, 396.85026299204986, 445.44935907016963]",Tone,"[9.330168526613592, 10.735160218967797, 11.570024076097177, 11.671229488450555]",False,684.4167031999677,687.3823434999213,687.3823434999213,688.5939321999904,['space'],1,3.601074230391532,4.626005530357361,None,1,None,1,[0.16802859981544316],,,,,,,quvsxs,001,fr,0,0,2022-05-17_12h50.04.194,Cluster,2022.1.1,36.59194349462968,
,,,,4,0,4,0,7,0,7,0,,,time,,,,,,,,,,,,,,,,,,,,,,,,,,,,,,,,,,,,,,,,,,,,,,,,,,,,,,,,,,,,,,,,,,,,,,,,,,,,,,,,,,,,,,,,,,,,,,,,,,,,,,,,,,,,,,,,,,,689.0997790999245,None,125.0,5.0,0.0012851978913844323,1,"[0.6958795496890093, 0.6958795496890093, 0.6958795496890093, 0.6958795496890093]","[133.65453897947154, 206.77180440727216, 218.77380311847554, 184.74417986369681]",None,"[10.27310147448673, 6.876039654364539, 6.75705146153416, 7.241812043660456]",False,690.1222168998793,693.2230403998401,693.2230403998401,694.4244613999035,['space'],1,3.8007485303096473,4.821826830506325,None,1,None,1,[0.41452380013652146],,,,,,,quvsxs,001,fr,0,0,2022-05-17_12h50.04.194,Cluster,2022.1.1,36.59194349462968,
,,,,4,0,4,0,8,0,8,0,,,time,,,,,,,,,,,,,,,,,,,,,,,,,,,,,,,,,,,,,,,,,,,,,,,,,,,,,,,,,,,,,,,,,,,,,,,,,,,,,,,,,,,,,,,,,,,,,,,,,,,,,,,,,,,,,,,,,,,694.984040599782,None,212.78699995586112,0.7570514615341596,0.0002622823566204699,0,"[0.5308875018413686, 0.5308875018413686, 0.5308875018413686, 0.5308875018413686]","[1316.2692370604616, 3833.112838328647, 426.2164883990666, 125.39174406740526]",None,"[6.854557875483904, 5.919617785862145, 11.671229488450555, 10.55968581726599]",False,696.0013226999436,698.6141148998868,698.6141148998868,699.830551699968,None,0,3.150578130269423,4.154124430380762,None,1,None,1,,,,,,,,quvsxs,001,fr,0,0,2022-05-17_12h50.04.194,Cluster,2022.1.1,36.59194349462968,
,,,,4,0,4,0,9,0,9,0,,,both,,,,,,,,,,,,,,,,,,,,,,,,,,,,,,,,,,,,,,,,,,,,,,,,,,,,,,,,,,,,,,,,,,,,,,,,,,,,,,,,,,,,,,,,,,,,,,,,,,,,,,,,,,,,,,,,,,,700.1976307998411,None,1627.6426500809948,0.9338255623800196,6.458170098244029e-05,1,"[0.6119430279832261, 0.6119430279832261, 0.6119430279832261, 0.6119430279832261]","[2583.7216549668797, 2301.834310441429, 2050.701236543721, 1826.9671029256094]",Tone,"[5.565799458368608, 5.176677237760281, 5.633473004060601, 6.1002107947482305]",False,701.2023151998874,704.0760730998591,704.0760730998591,705.3017121998128,['space'],1,3.474511130247265,4.495686230249703,None,1,None,1,[0.2670867000706494],,,,,,,quvsxs,001,fr,0,0,2022-05-17_12h50.04.194,Cluster,2022.1.1,36.59194349462968,
,,,,4,0,4,0,10,0,10,0,,,frequency,,,,,,,,,,,,,,,,,,,,,,,,,,,,,,,,,,,,,,,,,,,,,,,,,,,,,,,,,,,,,,,,,,,,,,,,,,,,,,,,,,,,,,,,,,,,,,,,,,,,,,,,,,,,,,,,,,,705.7375093998853,None,,,,,"[0.47192614444764397, 0.6140793030596071, 0.7425157383724442, 0.6427300954370939]","[514.872857823948, 648.6991515919224, 817.3097161396083, 1029.745715647896]",Major_3rd,"[11.0, 9.0, 6.566281837311289, 5.7085702773578575]",True,706.7461290999781,709.5859562999103,709.5859562999103,710.7949063999113,['space'],0,3.50822163047269,4.5177318304777145,None,1,None,1,[0.8509279999416322],,0,,,,,quvsxs,001,fr,0,0,2022-05-17_12h50.04.194,Cluster,2022.1.1,36.59194349462968,
,,,,4,0,4,0,11,0,11,0,,,time,,,,,,,,,,,,,,,,,,,,,,,,,,,,,,,,,,,,,,,,,,,,,,,,,,,,,,,,,,,,,,,,,,,,,,,,,,,,,,,,,,,,,,,,,,,,,,,,,,,,,,,,,,,,,,,,,,,711.2948406999931,None,2297.3967099940687,-6.0,4.0798774319230084e-05,0,"[0.6367267449478246, 0.6367267449478246, 0.6367267449478246, 0.6367267449478246]","[260.3172026600489, 661.2349991707699, 7795.160576788075, 2059.5602135835775]",None,"[7.849121882063646, 8.679293836948103, 3.0000000000000004, 5.633473004060601]",False,712.3264468999114,715.2707634000108,715.2707634000108,716.4839684998151,None,0,3.586875230073929,4.611442330060527,None,1,None,1,,,,,,,,quvsxs,001,fr,0,0,2022-05-17_12h50.04.194,Cluster,2022.1.1,36.59194349462968,
,,,,4,0,4,0,12,0,12,0,,,time,,,,,,,,,,,,,,,,,,,,,,,,,,,,,,,,,,,,,,,,,,,,,,,,,,,,,,,,,,,,,,,,,,,,,,,,,,,,,,,,,,,,,,,,,,,,,,,,,,,,,,,,,,,,,,,,,,,716.979142999975,None,310.7527482101828,3.3301685266135923,0.00015130536770479257,1,"[0.6015140560740417, 0.6015140560740417, 0.6015140560740417, 0.6015140560740417]","[1101.4005599492373, 6385.3375055312545, 145.54499042861718, 4008.353790097788]",None,"[6.0, 1.3154670164497082, 9.779158216387522, 5.190708467321604]",False,717.9818784999661,720.8106660000049,720.8106660000049,722.0226131998934,['space'],1,3.456009130226448,4.48102253023535,None,1,None,1,[0.20065140002407134],,,,,,,quvsxs,001,fr,0,0,2022-05-17_12h50.04.194,Cluster,2022.1.1,36.59194349462968,
,,,,4,0,4,0,13,0,13,0,,,none,,,,,,,,,,,,,,,,,,,,,,,,,,,,,,,,,,,,,,,,,,,,,,,,,,,,,,,,,,,,,,,,,,,,,,,,,,,,,,,,,,,,,,,,,,,,,,,,,,,,,,,,,,,,,,,,,,,722.5070747998543,None,435.2752816480623,3.0,0.00010558989463529619,1,"[0.7246863713325135, 0.6346220196380936, 0.6493440548724448, 0.789540886588787]","[2174.8740360200145, 353.4663242850423, 1143.352301274866, 862.9625510381973]",None,"[5.304905809411233, 10.735160218967797, 6.14075580409218, 6.085324619050359]",False,723.5408810998779,726.5887846997939,726.5887846997939,727.8040169999003,['space'],1,3.804747530259192,4.819207630353048,None,1,None,1,[0.439550600014627],,,,,,,quvsxs,001,fr,0,0,2022-05-17_12h50.04.194,Cluster,2022.1.1,36.59194349462968,
,,,,4,0,4,0,14,0,14,0,,,both,,,,,,,,,,,,,,,,,,,,,,,,,,,,,,,,,,,,,,,,,,,,,,,,,,,,,,,,,,,,,,,,,,,,,,,,,,,,,,,,,,,,,,,,,,,,,,,,,,,,,,,,,,,,,,,,,,,728.4133068998344,None,2828.42712474619,-4.0,4.131885137928784e-05,1,"[0.7836311859233884, 0.7836311859233884, 0.7836311859233884, 0.7836311859233884]","[1781.7974362806788, 2000.0000000000002, 2244.9240966187463, 2519.8420997897465]",Tone,"[6.566156445600722, 5.633473004060601, 5.176677237760281, 5.277906663124167]",False,729.5063600998838,732.8735340998974,732.8735340998974,734.1120310998522,['space'],1,4.1628651700448245,5.198344670236111,None,1,None,1,[0.26823069993406534],,,,,,,quvsxs,001,fr,0,0,2022-05-17_12h50.04.194,Cluster,2022.1.1,36.59194349462968,
,,,,4,0,4,0,15,0,15,0,,,frequency,,,,,,,,,,,,,,,,,,,,,,,,,,,,,,,,,,,,,,,,,,,,,,,,,,,,,,,,,,,,,,,,,,,,,,,,,,,,,,,,,,,,,,,,,,,,,,,,,,,,,,,,,,,,,,,,,,,734.754712899914,None,267.9433656340732,-4.0,9.368035515380568e-05,0,"[0.45403058760208154, 0.712832433719246, 0.7278688402990187, 0.5092704320478911]","[168.79374327102366, 189.46457081379967, 212.66679023771383, 238.71040097760402]",Tone,"[8.460699112274225, 7.241812043660456, 6.75705146153416, 7.0]",False,735.7770244998392,738.7022460999433,738.7022460999433,739.9191076999996,None,0,3.44137373031117,4.475949530256912,None,1,None,1,,,,,,,,quvsxs,001,fr,0,0,2022-05-17_12h50.04.194,Cluster,2022.1.1,36.59194349462968,
,,,,4,0,4,0,16,0,16,0,,,none,,,,,,,,,,,,,,,,,,,,,,,,,,,,,,,,,,,,,,,,,,,,,,,,,,,,,,,,,,,,,,,,,,,,,,,,,,,,,,,,,,,,,,,,,,,,,,,,,,,,,,,,,,,,,,,,,,,740.2992683998309,None,1099.0134208672453,0.0,4.8193890270344326e-05,1,"[0.45709389019365965, 0.6132641413507407, 0.4425257667307519, 0.4843403921886093]","[382.13697167359214, 3194.0354344271236, 811.7807461691941, 602.8627376537165]",None,"[11.254749696499829, 6.469547185443853, 6.566281837311289, 9.439401505478198]",False,741.3008053000085,743.8554658999201,743.8554658999201,745.0748470998369,['space'],1,3.0310222301632166,4.04611543007195,None,1,None,1,[0.36350269988179207],,,,,,,quvsxs,001,fr,0,0,2022-05-17_12h50.04.194,Cluster,2022.1.1,36.59194349462968,
,,,,4,0,4,0,17,0,17,0,,,both,,,,,,,,,,,,,,,,,,,,,,,,,,,,,,,,,,,,,,,,,,,,,,,,,,,,,,,,,,,,,,,,,,,,,,,,,,,,,,,,,,,,,,,,,,,,,,,,,,,,,,,,,,,,,,,,,,,745.3866947998758,None,,,,,"[0.7373723452070176, 0.7373723452070176, 0.7373723452070176, 0.7373723452070176]","[2531.696548433243, 2009.408882123595, 1594.8688866586192, 1265.8482742166216]",Major_3rd,"[5.277906663124167, 5.633473004060601, 7.0, 6.50896343074093]",True,746.3891544998623,749.6267112998758,749.6267112998758,750.862227199832,None,1,3.9951470303349197,5.001866930397227,None,1,None,1,,,0,,,,,quvsxs,001,fr,0,0,2022-05-17_12h50.04.194,Cluster,2022.1.1,36.59194349462968,
,,,,4,0,4,0,18,0,18,0,,,both,,,,,,,,,,,,,,,,,,,,,,,,,,,,,,,,,,,,,,,,,,,,,,,,,,,,,,,,,,,,,,,,,,,,,,,,,,,,,,,,,,,,,,,,,,,,,,,,,,,,,,,,,,,,,,,,,,,751.4227696999442,None,3004.4526905448865,0.3018775615093445,5.719909396309623e-05,0,"[0.7814376873810281, 0.7814376873810281, 0.7814376873810281, 0.7814376873810281]","[1192.3178403899103, 1502.2263452724435, 1892.686594115395, 2384.63568077982]",Major_3rd,"[6.50896343074093, 7.124052080247171, 6.0, 5.277906663124167]",False,752.435292399954,755.8035323999356,755.8035323999356,757.0011207999196,None,0,4.157081730198115,5.161613530246541,None,1,None,1,,,,,,,,quvsxs,001,fr,0,0,2022-05-17_12h50.04.194,Cluster,2022.1.1,36.59194349462968,
,,,,4,0,4,0,19,0,19,0,,,both,,,,,,,,,,,,,,,,,,,,,,,,,,,,,,,,,,,,,,,,,,,,,,,,,,,,,,,,,,,,,,,,,,,,,,,,,,,,,,,,,,,,,,,,,,,,,,,,,,,,,,,,,,,,,,,,,,,757.6363700998481,None,3031.4331330207992,-3.0,4.091827205982744e-05,1,"[0.5830434136461932, 0.5830434136461932, 0.5830434136461932, 0.5830434136461932]","[4812.100144328472, 4287.093850145177, 3819.3664156416703, 3402.668643803426]",Tone,"[2.253106289190758, 4.2409436738925885, 5.919617785862145, 6.36155917072716]",False,762.7295899000019,765.492169899866,765.492169899866,766.7037874998059,['space'],1,3.368785420898348,4.372980520827696,None,1,None,1,[0.3273807999212295],,,,,,,quvsxs,001,fr,0,0,2022-05-17_12h50.04.194,Cluster,2022.1.1,36.59194349462968,
,,,,5,0,5,0,0,0,0,0,,,time,,,,,,,,,,,,,,,,,,,,,,,,,,,,,,,,,,,,,,,,,,,,,,,,,,,,,,,,,,,,,,,,,,,,,,,,,,,,,,,,,,,,,,,,,,,,,,,,,,,,,,,,,,,,,,,,,,,774.2071226998232,None,435.2752816480623,-4.0,4.716527343053582e-05,0,"[0.7533135901682209, 0.7533135901682209, 0.7533135901682209, 0.7533135901682209]","[6692.532509155345, 2457.475554961745, 436.61474218494584, 1415.982074098296]",None,"[1.3154670164497082, 5.277906663124167, 11.671229488450555, 7.089383911605467]",False,775.2097815999296,778.4903338998556,778.4903338998556,779.6934099998325,None,0,4.026502530090511,5.043785730144009,None,1,None,1,,,,,,,,quvsxs,001,fr,0,0,2022-05-17_12h50.04.194,Cluster,2022.1.1,36.59194349462968,
,,,,5,0,5,0,1,0,1,0,,,frequency,,,,,,,,,,,,,,,,,,,,,,,,,,,,,,,,,,,,,,,,,,,,,,,,,,,,,,,,,,,,,,,,,,,,,,,,,,,,,,,,,,,,,,,,,,,,,,,,,,,,,,,,,,,,,,,,,,,780.3122979998589,None,5354.63847049958,-4.495896272448861,8.323443025760897e-05,1,"[0.586415617741932, 0.7170222945744376, 0.41158530242761815, 0.7827539480237926]","[3373.2108617796534, 3786.301173292615, 4249.979370490211, 4770.440549473023]",Tone,"[6.36155917072716, 5.919617785862145, 4.2409436738925885, 3.0]",False,781.3110851999372,784.059290099889,784.059290099889,785.2665875998791,['space'],1,3.543205530149862,4.548477730015293,None,1,None,1,[0.2736929999664426],,,,,,,quvsxs,001,fr,0,0,2022-05-17_12h50.04.194,Cluster,2022.1.1,36.59194349462968,
,,,,5,0,5,0,2,0,2,0,,,time,,,,,,,,,,,,,,,,,,,,,,,,,,,,,,,,,,,,,,,,,,,,,,,,,,,,,,,,,,,,,,,,,,,,,,,,,,,,,,,,,,,,,,,,,,,,,,,,,,,,,,,,,,,,,,,,,,,785.9032820998691,None,231.36138588716796,0.8965361670768676,0.0002261806773125178,0,"[0.6362943002299567, 0.6362943002299567, 0.6362943002299567, 0.6362943002299567]","[2722.701805839072, 1217.3629412319772, 214.8435952542125, 728.3115567371756]",None,"[5.565799458368608, 6.50896343074093, 6.75705146153416, 7.917063680964205]",False,786.9120608998928,789.8611544999294,789.8611544999294,791.0813670998905,None,0,3.6078444300219417,4.609464430017397,None,1,None,1,,,,,,,,quvsxs,001,fr,0,0,2022-05-17_12h50.04.194,Cluster,2022.1.1,36.59194349462968,
,,,,5,0,5,0,3,0,3,0,,,time,,,,,,,,,,,,,,,,,,,,,,,,,,,,,,,,,,,,,,,,,,,,,,,,,,,,,,,,,,,,,,,,,,,,,,,,,,,,,,,,,,,,,,,,,,,,,,,,,,,,,,,,,,,,,,,,,,,791.5559956999496,None,,,,,"[0.5244985828067498, 0.5244985828067498, 0.5244985828067498, 0.5244985828067498]","[192.17494255284754, 607.2509520671567, 883.5817479603971, 313.45428568343544]",None,"[7.241812043660456, 9.439401505478198, 6.0, 9.330168526613592]",True,792.5633791999426,795.1727541999426,795.1727541999426,796.3846973998006,None,1,3.1435132301412523,4.14627003017813,None,1,['space'],0,,[-3.591662500053644],0,,,,,quvsxs,001,fr,0,0,2022-05-17_12h50.04.194,Cluster,2022.1.1,36.59194349462968,
,,,,5,0,5,0,4,0,4,0,,,frequency,,,,,,,,,,,,,,,,,,,,,,,,,,,,,,,,,,,,,,,,,,,,,,,,,,,,,,,,,,,,,,,,,,,,,,,,,,,,,,,,,,,,,,,,,,,,,,,,,,,,,,,,,,,,,,,,,,,796.7418169998564,None,125.0,5.0,0.0012851978913844323,1,"[0.5796316862948668, 0.4106045372334716, 0.5121414477410818, 0.4579248724892783]","[629.9605249474366, 420.4482076268573, 280.6155120773433, 187.2883846095852]",Perfect_5th,"[9.0, 11.570024076097177, 8.559262982701703, 7.241812043660456]",False,797.7614866998047,800.2834308999591,800.2834308999591,801.5061897998676,['space'],1,2.9774762301240116,3.9958391301333904,None,1,None,1,[0.5584319999907166],,,,,,,quvsxs,001,fr,0,0,2022-05-17_12h50.04.194,Cluster,2022.1.1,36.59194349462968,
,,,,5,0,5,0,5,0,5,0,,,frequency,,,,,,,,,,,,,,,,,,,,,,,,,,,,,,,,,,,,,,,,,,,,,,,,,,,,,,,,,,,,,,,,,,,,,,,,,,,,,,,,,,,,,,,,,,,,,,,,,,,,,,,,,,,,,,,,,,,801.7950792999472,None,3042.3323144055967,0.3018775615093445,6.091062380563681e-05,1,"[0.609334414500513, 0.6954872145481044, 0.4467285342890315, 0.41416912434938696]","[4829.401516324291, 4302.507620278322, 3833.0985236949987, 3414.9025612655014]",Tone,"[2.253106289190758, 4.2409436738925885, 5.919617785862145, 6.36155917072716]",False,802.7991343999747,805.5669438999612,805.5669438999612,806.7706929999404,['space'],1,3.2116635299753398,4.230339729925618,None,1,None,1,[0.30810340004973114],,,,,,,quvsxs,001,fr,0,0,2022-05-17_12h50.04.194,Cluster,2022.1.1,36.59194349462968,
,,,,5,0,5,0,6,0,6,0,,,both,,,,,,,,,,,,,,,,,,,,,,,,,,,,,,,,,,,,,,,,,,,,,,,,,,,,,,,,,,,,,,,,,,,,,,,,,,,,,,,,,,,,,,,,,,,,,,,,,,,,,,,,,,,,,,,,,,,807.0808024997823,None,322.76814527594746,4.0,0.00015310774546132717,1,"[0.7630351449355206, 0.7630351449355206, 0.7630351449355206, 0.7630351449355206]","[128.09062333821595, 161.38407263797376, 203.33119023434637, 256.18124667643184]",Major_3rd,"[10.55968581726599, 8.460699112274225, 6.876039654364539, 7.280743668337028]",False,808.0885673000012,811.3913013997953,811.3913013997953,812.6080430999864,['space'],1,4.1035552301909775,5.111701630288735,None,1,None,1,[0.3425167999230325],,,,,,,quvsxs,001,fr,0,0,2022-05-17_12h50.04.194,Cluster,2022.1.1,36.59194349462968,
,,,,5,0,5,0,7,0,7,0,,,both,,,,,,,,,,,,,,,,,,,,,,,,,,,,,,,,,,,,,,,,,,,,,,,,,,,,,,,,,,,,,,,,,,,,,,,,,,,,,,,,,,,,,,,,,,,,,,,,,,,,,,,,,,,,,,,,,,,813.2504166997969,None,1319.5079107728945,-5.0,2.9682383261324144e-05,0,"[0.4305614543693351, 0.4305614543693351, 0.4305614543693351, 0.4305614543693351]","[831.2378961427878, 933.0329915368075, 1047.2941228206269, 1175.5479062836089]",Tone,"[6.566281837311289, 5.785634017698149, 5.839735171374016, 6.14075580409218]",False,816.0179385999218,818.3360543998424,818.3360543998424,819.5484548998065,None,0,2.7687439103610814,3.77416761033237,None,1,None,1,,,,,,,,quvsxs,001,fr,0,0,2022-05-17_12h50.04.194,Cluster,2022.1.1,36.59194349462968,
,,,,5,0,5,0,8,0,8,0,,,time,,,,,,,,,,,,,,,,,,,,,,,,,,,,,,,,,,,,,,,,,,,,,,,,,,,,,,,,,,,,,,,,,,,,,,,,,,,,,,,,,,,,,,,,,,,,,,,,,,,,,,,,,,,,,,,,,,,819.823221999919,None,4000.0,-6.0,4.206975708225974e-05,0,"[0.7708473562805546, 0.7708473562805546, 0.7708473562805546, 0.7708473562805546]","[184.22945602823697, 7815.147049165476, 3431.0395205001196, 357.49306579416344]",None,"[7.241812043660456, 3.0000000000000004, 6.36155917072716, 10.735160218967797]",False,820.8400929998606,824.1700505998451,824.1700505998451,825.3863917000126,None,0,4.106417030096054,5.108194230124354,None,1,"['space', 'space']",0,,"[-0.7245932999067008, 0.4910222999751568]",,"{'estimation': [[125.0, 2.989110797601098], [125.09506280127684, 3.0], [133.97168281703668, 3.9290395380888805], [134.8326543601597, 4.0], [143.5872943746293, 4.693270446254165], [150.17750498211177, 5.0], [153.89305166811442, 5.176430597600356], [164.93848884661162, 5.295208759844993], [176.77669529663666, 5.011010872395504], [176.97166532436583, 5.0], [189.46457081379947, 4.363920718020213], [194.3282233325495, 4.0], [203.0630990890585, 3.4035640081176894], [207.9193096579611, 3.0], [217.6376408240306, 2.2475542834176645], [220.72570728655467, 2.0], [233.25824788420132, 1.0204705519647694], [233.55458729380658, 1.0], [247.8927426236632, 0.0], [249.99999999999937, -0.14603428347935912], [265.35612468746325, -1.0], [267.94336563407256, -1.1473981778886095], [287.1745887492579, -1.920159249581741], [290.18362268812626, -2.0], [307.78610333622805, -2.4587297315279484], [329.87697769322244, -2.7638095893299237], [353.55339059327247, -2.8870772033337833], [378.929141627598, -2.8697036964775386], [406.12619817811606, -2.7456572201558664], [435.2752816480601, -2.5329654864606095], [466.5164957684015, -2.22897760824333], [484.81436923163847, -2.0], [499.9999999999975, -1.8152163581161718], [535.8867312681438, -1.3118062644855186], [555.7862463260828, -1.0], [574.3491774985143, -0.719306648092672], [615.5722066724546, -0.1088239305799612], [623.599869580976, 0.0], [659.7539553864432, 0.4598553393606535], [707.1067811865431, 0.8813254130217109], [736.6857510359579, 1.0], [757.8582832551941, 1.080655663764781], [799.5984684658331, 1.0], [812.2523963562301, 0.9766539619895499], [870.5505632961181, 0.5507132477656387], [917.2558140895569, 0.0], [933.0329915368008, -0.18416835856247862], [988.9662305784809, -1.0], [999.9999999999939, -1.161634363715487], [1053.5892053706327, -2.0], [1071.773462536285, -2.287207479188599], [1119.500787917221, -3.0], [1148.6983549970246, -3.439895264320885], [1192.1804174546087, -4.0], [1231.1444133449063, -4.499375117837118], [1282.0431439013864, -5.0], [1319.5079107728816, -5.35951568255048], [1414.2135623730828, -5.935115024692186], [1437.4217222357465, -6.0], [1515.7165665103846, -6.207126987869378], [1624.5047927124563, -6.172011303590773], [1693.0921218292208, -6.0], [1741.1011265922318, -5.884915098255586], [1866.065983073597, -5.4457833998908285], [1984.902888094594, -5.0], [1999.9999999999802, -4.943821474275692], [2143.5469250725646, -4.485454999006324], [2297.396709994046, -4.147761486228999], [2434.0278651277704, -4.0], [2462.2888266898062, -3.9703369800943205], [2639.01582154576, -3.975506708811544], [2665.2176138480154, -4.0], [2828.427124746159, -4.148757973147719], [3031.4331330207615, -4.448922218309184], [3249.0095854249043, -4.834636219608139], [3337.3143706436026, -5.0], [3482.2022531844555, -5.2710457857038335], [3732.1319661471844, -5.69551634266963], [3946.5911815066142, -6.0], [3999.9999999999504, -6.075056479833599], [4287.093850145118, -6.356224899279445], [4594.793419988076, -6.487052956204451], [4924.577653379601, -6.4295245079415], [5278.031643091506, -6.153684087766457], [5389.138177815174, -5.999999999999999], [5656.854249492303, -5.654135598946394], [6040.249681289526, -5.0], [6062.866266041501, -4.963000984264118], [6498.019170849792, -4.139808031493905], [6566.9683489640865, -4.0], [6964.404506368894, -3.2547157860619897], [7105.861945781171, -3.0], [7464.2639322943505, -2.395524431102131], [7743.137798054837, -2.0], [7999.999999999872, -1.640682293292599]], 'plus_line': [[125.0, 0.5807130699802276], [128.24928742528687, 1.0], [133.9716828170366, 1.6719101842956814], [137.73757030393043, 2.0], [143.5872943746293, 2.4570646477885845], [153.89305166811442, 2.9087449256458027], [164.60838862878265, 3.0], [164.93848884661162, 3.0023606110288323], [165.04271458207955, 3.0], [176.77669529663666, 2.718965990045142], [189.46457081379947, 2.150789406569254], [191.70555974188298, 2.0], [203.0630990890585, 1.27925522546365], [206.62453020247744, 1.0], [217.6376408240306, 0.19006882811354942], [219.9838760186047, 0.0], [232.54940065765854, -1.0], [233.25824788420132, -1.0539536865192292], [245.23837733715717, -2.0], [249.99999999999937, -2.357028153881878], [259.99419244020515, -3.0], [267.94336563407256, -3.5141298037618713], [278.49331522712447, -4.0], [287.1745887492579, -4.417583778222814], [307.78610333622805, -4.982722606452478], [309.08654553774926, -5.0], [329.87697769322244, -5.300033655707669], [353.55339059327247, -5.367316499182246], [378.929141627598, -5.280301268495265], [406.12619817811606, -5.092801339562331], [415.98475942283585, -5.0], [435.2752816480601, -4.853020032863224], [466.5164957684015, -4.559088628577449], [499.9999999999975, -4.1515515097393045], [509.9525330975175, -4.0], [535.8867312681438, -3.658482289995768], [574.3491774985143, -3.0552472880553463], [577.6238519132544, -3.0], [615.5722066724546, -2.4431488563897874], [646.2375133280239, -2.0], [659.7539553864432, -1.8272095708656564], [707.1067811865431, -1.3736220368637428], [757.8582832551941, -1.1174363084059842], [812.2523963562301, -1.1870374061616653], [870.5505632961181, -1.6068052813006104], [902.9876075308641, -2.0], [933.0329915368008, -2.379491855377325], [971.6815912048298, -3.0], [999.9999999999926, -3.4521827252562343], [1030.9439985854742, -4.0], [1071.773462536285, -4.705255225058682], [1089.4016391139514, -5.0], [1148.698354997026, -5.9761940879269195], [1150.4023622151237, -6.0], [1221.0947989861115, -6.999999999999999], [1231.1444133449063, -7.136954184774169], [1319.5079107728832, -7.998663316970639], [1319.7395908590381, -8.0], [1414.2135623730828, -8.553856776973062], [1515.7165665103846, -8.730960628526494], [1624.5047927124563, -8.627665576703484], [1741.1011265922318, -8.31008599048314], [1821.0802699485796, -8.0], [1866.065983073597, -7.849563763527966], [1999.9999999999802, -7.3725050827152305], [2108.296023246353, -7.0], [2143.5469250725646, -6.89338648505762], [2297.396709994046, -6.557847459888341], [2462.2888266898062, -6.375444577132894], [2639.01582154576, -6.396055948174112], [2828.427124746159, -6.616594608324134], [3031.4331330207615, -6.984627987432797], [3038.4845086934683, -7.0], [3249.0095854249043, -7.500580747847085], [3482.2022531844555, -7.997411967498072], [3483.5605395352045, -8.0], [3732.1319661471844, -8.505585341371898], [3999.9999999999504, -8.881487291287545], [4138.10996342831, -9.0], [4287.093850145118, -9.141092433322966], [4594.793419988081, -9.229895863658626], [4924.577653379601, -9.10650881781023], [5025.912889177296, -9.0], [5278.031643091513, -8.782267210993087], [5656.854249492303, -8.242049752981938], [5778.473879894043, -8.0], [6062.866266041516, -7.497961328115679], [6290.7302699096845, -7.0], [6498.019170849792, -6.586601375590979], [6766.364986947876, -6.0], [6964.404506368894, -5.602127203218396], [7278.6453437783075, -5.0], [7464.2639322943505, -4.672622700066649], [7956.260471830735, -4.0], [7999.999999999882, -3.9436251743599136]], 'minus_line': [[125.0, 5.409684748640741], [131.04522019566915, 6.0], [133.9716828170366, 6.282774952898258], [142.60221734544646, 7.0], [143.5872943746293, 7.086689785006591], [153.89305166811442, 7.680099597261506], [164.93848884661162, 7.855989611724389], [176.77669529663666, 7.58246921640092], [186.14475412468911, 6.999999999999999], [189.46457081379947, 6.8178750444320535], [199.30364573202033, 6.0], [203.0630990890585, 5.71379600236496], [211.01856513407793, 5.0], [217.6376408240306, 4.431187420608001], [222.87167093687682, 4.0], [233.25824788420132, 3.141197880623901], [235.35060929738526, 3.0], [249.99999999999937, 2.0091242027554266], [250.17714888732883, 2.0], [267.94336563407256, 1.1222861094231351], [271.22704276817615, 1.0], [287.1745887492579, 0.45287652684248925], [305.5117163766148, 0.0], [307.78610333622805, -0.05157095523086194], [329.87697769322244, -0.3417368857437303], [353.55339059327247, -0.48844136911166774], [378.929141627598, -0.5044310449763106], [406.12619817811606, -0.40514521533835884], [435.2752816480601, -0.20718910135954904], [457.0613876029146, 0.0], [466.5164957684015, 0.10150035605100971], [499.9999999999975, 0.5312336558873099], [534.6270148338336, 1.0], [535.8867312681438, 1.018694160848468], [574.3491774985143, 1.6198446167288318], [601.2691522167189, 2.0], [615.5722066724546, 2.2123346444858987], [659.7539553864432, 2.7427683635686324], [692.6657305637467, 3.0], [707.1067811865431, 3.1237507492365255], [757.8582832551941, 3.2858192424579493], [812.2523963562301, 3.133264010847462], [827.5890245639554, 3.0], [870.5505632961181, 2.6900740049155174], [928.918456445375, 2.0], [933.0329915368008, 1.9544959929823025], [999.9999999999926, 1.046338196691201], [1003.261975055179, 1.0], [1071.773462536285, 0.023391603727641486], [1073.5018160738803, 0.0], [1146.9149996179865, -1.0], [1148.698354997026, -1.0244728824934228], [1229.871770367843, -2.0], [1231.1444133449047, -2.0151712326512485], [1319.5079107728816, -2.8495914591477085], [1340.5898923893383, -3.0], [1414.2135623730828, -3.461336540025666], [1515.7165665103846, -3.7904877829077663], [1624.5047927124563, -3.793384524997169], [1741.1011265922318, -3.502284993278275], [1866.065983073597, -3.0496847561258558], [1878.619335680694, -3.0], [1999.9999999999802, -2.4922769879589977], [2143.5469250725646, -2.043752115935258], [2164.313958348907, -2.0], [2297.396709994046, -1.6968967490728328], [2462.2888266898062, -1.5459514599069282], [2639.01582154576, -1.562953482871023], [2828.427124746159, -1.7144205666468126], [3031.4331330207615, -1.979483580358443], [3044.197717844957, -2.0], [3249.0095854249043, -2.281402232101236], [3482.2022531844555, -2.6407593200026156], [3698.1021469553752, -3.0], [3732.1319661471844, -3.0507791325937523], [3999.999999999946, -3.411488942210106], [4287.093850145118, -3.7230532301437522], [4594.793419988081, -3.91752635434789], [4924.577653379601, -3.910608033934605], [5278.0316430915, -3.6613989665302835], [5656.854249492303, -3.205140476929668], [5782.0413316903905, -3.0], [6062.866266041508, -2.535047288670805], [6365.443065809394, -2.0], [6498.019170849792, -1.7649797305321022], [6944.582979585742, -1.0], [6964.404506368894, -0.9660978349665034], [7464.263932294341, -0.14758288628748545], [7562.660367440122, 0.0], [7999.999999999882, 0.6699035011448441]]}",,,,quvsxs,001,fr,0,0,2022-05-17_12h50.04.194,Cluster,2022.1.1,36.59194349462968,
,,,,5,0,5,0,9,0,9,0,,,none,,,,,,,,,,,,,,,,,,,,,,,,,,,,,,,,,,,,,,,,,,,,,,,,,,,,,,,,,,,,,,,,,,,,,,,,,,,,,,,,,,,,,,,,,,,,,,,,,,,,,,,,,,,,,,,,,,,826.0040030998643,None,,,,,"[0.48121310069946094, 0.5731015013155042, 0.5547031801164803, 0.5971393661020252]","[510.57560237139245, 969.2705525073796, 126.95919137369789, 1811.2867518577314]",None,"[11.0, 5.7085702773578575, 10.55968581726599, 6.1002107947482305]",True,827.006675499957,829.6459986998234,829.6459986998234,830.8585473999847,None,1,3.2612469303421676,4.283667230280116,None,1,None,1,,,0,,,,,quvsxs,001,fr,0,0,2022-05-17_12h50.04.194,Cluster,2022.1.1,36.59194349462968,
,,,,5,0,5,0,10,0,10,0,,,none,,,,,,,,,,,,,,,,,,,,,,,,,,,,,,,,,,,,,,,,,,,,,,,,,,,,,,,,,,,,,,,,,,,,,,,,,,,,,,,,,,,,,,,,,,,,,,,,,,,,,,,,,,,,,,,,,,,831.3194821998477,None,2639.015821545789,-5.0,4.344455436419077e-05,1,"[0.4980391945493938, 0.4543774233885054, 0.4880373075466009, 0.7936617561810704]","[1476.197642781164, 1782.6513360514555, 4855.278397478589, 580.988295516772]",None,"[7.124052080247171, 6.566156445600722, 2.253106289190758, 10.0]",False,832.3351236998569,834.7978930999525,834.7978930999525,836.0205563998315,['space'],1,3.2737271301448345,4.276181630091742,None,1,None,1,[0.4320245999842882],,,,,,,quvsxs,001,fr,0,0,2022-05-17_12h50.04.194,Cluster,2022.1.1,36.59194349462968,
,,,,5,0,5,0,11,0,11,0,,,both,,,,,,,,,,,,,,,,,,,,,,,,,,,,,,,,,,,,,,,,,,,,,,,,,,,,,,,,,,,,,,,,,,,,,,,,,,,,,,,,,,,,,,,,,,,,,,,,,,,,,,,,,,,,,,,,,,,836.6739759999327,None,,,,,"[0.6080601256456001, 0.6080601256456001, 0.6080601256456001, 0.6080601256456001]","[2748.7944805930265, 2181.7196250688753, 1731.632013966999, 1374.397240296513]",Major_3rd,"[5.950210366582112, 5.304905809411233, 6.566156445600722, 7.0]",True,837.6774780999403,840.5258590998128,840.5258590998128,841.7367277999874,None,1,3.467430630233139,4.469814730109647,None,1,None,1,,,0,,,,,quvsxs,001,fr,0,0,2022-05-17_12h50.04.194,Cluster,2022.1.1,36.59194349462968,
,,,,5,0,5,0,12,0,12,0,,,both,,,,,,,,,,,,,,,,,,,,,,,,,,,,,,,,,,,,,,,,,,,,,,,,,,,,,,,,,,,,,,,,,,,,,,,,,,,,,,,,,,,,,,,,,,,,,,,,,,,,,,,,,,,,,,,,,,,842.1827987998258,None,5074.177990048665,-4.0,9.465031766289704e-05,1,"[0.4129454471091996, 0.4129454471091996, 0.4129454471091996, 0.4129454471091996]","[1006.844434909642, 1508.56214213902, 2260.2893334751398, 3386.6075041346794]",Perfect_5th,"[5.7085702773578575, 7.124052080247171, 5.176677237760281, 6.36155917072716]",False,843.1878259999212,845.4704750999808,845.4704750999808,846.6906498998869,['space'],1,2.7030607301276177,3.7145077302120626,None,1,None,1,[0.2351673999801278],,,,,,,quvsxs,001,fr,0,0,2022-05-17_12h50.04.194,Cluster,2022.1.1,36.59194349462968,
,,,,5,0,5,0,13,0,13,0,,,both,,,,,,,,,,,,,,,,,,,,,,,,,,,,,,,,,,,,,,,,,,,,,,,,,,,,,,,,,,,,,,,,,,,,,,,,,,,,,,,,,,,,,,,,,,,,,,,,,,,,,,,,,,,,,,,,,,,846.9411211998668,None,125.0,3.0,0.001020868972334765,1,"[0.40249543424008, 0.40249543424008, 0.40249543424008, 0.40249543424008]","[629.9605249474366, 420.4482076268573, 280.6155120773433, 187.2883846095852]",Perfect_5th,"[9.0, 11.570024076097177, 8.559262982701703, 7.241812043660456]",False,849.8111755999271,852.0544015998021,852.0544015998021,853.2889197999611,['space'],1,2.6432926203124225,3.6803615202661604,None,1,None,1,[0.7486554000061005],,,,,,,quvsxs,001,fr,0,0,2022-05-17_12h50.04.194,Cluster,2022.1.1,36.59194349462968,
,,,,5,0,5,0,14,0,14,0,,,both,,,,,,,,,,,,,,,,,,,,,,,,,,,,,,,,,,,,,,,,,,,,,,,,,,,,,,,,,,,,,,,,,,,,,,,,,,,,,,,,,,,,,,,,,,,,,,,,,,,,,,,,,,,,,,,,,,,853.5350422000047,None,238.07789930555506,1.0,0.0002141264289077834,0,"[0.5775628099079513, 0.5775628099079513, 0.5775628099079513, 0.5775628099079513]","[149.9796784249104, 168.346497049606, 188.9625539040086, 212.10329530886378]",Tone,"[9.157614597598986, 8.460699112274225, 7.241812043660456, 6.75705146153416]",False,854.5411079998594,857.290037299972,857.290037299972,858.4962798999622,None,0,3.358177130110562,4.392150430008769,None,1,None,1,,,,,,,,quvsxs,001,fr,0,0,2022-05-17_12h50.04.194,Cluster,2022.1.1,36.59194349462968,
,,,,5,0,5,0,15,0,15,0,,,none,,,,,,,,,,,,,,,,,,,,,,,,,,,,,,,,,,,,,,,,,,,,,,,,,,,,,,,,,,,,,,,,,,,,,,,,,,,,,,,,,,,,,,,,,,,,,,,,,,,,,,,,,,,,,,,,,,,858.980312399799,None,3872.1628162858847,-0.8092915326783954,7.442809919201255e-05,1,"[0.4402363439374015, 0.41533712468391887, 0.549227370324066, 0.6636814191453129]","[606.2512339394391, 2283.9831589199334, 3268.1721218566545, 3991.04972849374]",None,"[9.439401505478198, 5.176677237760281, 6.469547185443853, 5.190708467321604]",False,859.9782620999031,862.4169663998764,862.4169663998764,863.6308780999389,['space'],1,3.1138990300241858,4.142974229995161,None,1,None,1,[0.22474680002778769],,,,,,,quvsxs,001,fr,0,0,2022-05-17_12h50.04.194,Cluster,2022.1.1,36.59194349462968,
,,,,5,0,5,0,16,0,16,0,,,both,,,,,,,,,,,,,,,,,,,,,,,,,,,,,,,,,,,,,,,,,,,,,,,,,,,,,,,,,,,,,,,,,,,,,,,,,,,,,,,,,,,,,,,,,,,,,,,,,,,,,,,,,,,,,,,,,,,864.1666641999036,None,,,,,"[0.4735319834942896, 0.4735319834942896, 0.4735319834942896, 0.4735319834942896]","[1389.79490776393, 1238.1665018048564, 1103.0809493022546, 982.7334037384072]",Tone,"[7.0, 6.50896343074093, 6.0, 5.7085702773578575]",True,865.157470599981,867.6029554998968,867.6029554998968,868.8104286999442,None,1,2.9197721302043647,3.927594230277464,None,1,None,1,,,0,,,,,quvsxs,001,fr,0,0,2022-05-17_12h50.04.194,Cluster,2022.1.1,36.59194349462968,
,,,,5,0,5,0,17,0,17,0,,,frequency,,,,,,,,,,,,,,,,,,,,,,,,,,,,,,,,,,,,,,,,,,,,,,,,,,,,,,,,,,,,,,,,,,,,,,,,,,,,,,,,,,,,,,,,,,,,,,,,,,,,,,,,,,,,,,,,,,,869.1193024998065,None,,,,,"[0.42875001484069597, 0.5633419442289247, 0.4661443950540248, 0.45205597127871866]","[1295.691439391774, 1941.3436530892288, 2908.728934073221, 4358.169146637873]",Perfect_5th,"[6.854557875483904, 6.0, 6.0, 4.0]",True,870.1212985999882,872.6194778999779,872.6194778999779,873.8259460998233,None,1,2.9598509303759784,3.979545530397445,None,1,None,1,,,0,,,,,quvsxs,001,fr,0,0,2022-05-17_12h50.04.194,Cluster,2022.1.1,36.59194349462968,
